onset	duration	eventnumber	stimulus_file	blockno	trialno	is_faststream	stim	stim_category	category_number	exemplar	exemplar_number	image_name	image_number	aliveness	aliveness_bin	movement	movement_bin	naturalness	naturalness_bin	response_hand_moves	istarget	response	keypressed	rt	correct	time_stimon	time_stimoff	stimdur
103389	100	0	stimuli\movArt\bus\ma_bus07.jpg                  	1	1	1	ma_bus07.jpg         	movArt   	2	bus       	3	bus07       	36	not_alive	0	moves	1	artefact	0	n	0	0    	 	0.0	0	91.89299040000002	91.99281479999999	0.0998244
103539	100	1	stimuli\movNat\waterfall\mn_waterfall02.jpg      	1	1	1	mn_waterfall02.jpg   	movNat   	3	waterfall 	37	waterfall02 	371	not_alive	0	moves	1	natural 	1	n	0	0    	 	0.0	0	92.04292120000001	92.14281609999999	0.0998949
103689	100	2	stimuli\animals\horse\animal_horse04.jpg         	1	1	1	animal_horse04.jpg   	animals  	0	horse     	20	horse04     	203	alive    	1	moves	1	natural 	1	n	0	0    	 	0.0	0	92.1928932	92.2928226	0.0999294
103839	100	3	stimuli\movNat\waves\mn_waves05.jpg              	1	1	1	mn_waves05.jpg       	movNat   	3	waves     	38	waves05     	384	not_alive	0	moves	1	natural 	1	n	0	0    	 	0.0	0	92.34289179999999	92.44280090000001	0.0999091
103989	100	4	stimuli\plant2\lemontree\plant_lemontree08.jpg   	1	1	1	plant_lemontree08.jpg	plant2   	7	lemontree 	22	lemontree08 	227	alive    	1	still	0	natural 	1	n	0	0    	 	0.0	0	92.4928934	92.592777	0.0998836
104139	100	5	stimuli\nonmovNat\cliff\nmn_cliff06.jpg          	1	1	1	nmn_cliff06.jpg      	nonmovNat	5	cliff     	7	cliff06     	75	not_alive	0	still	0	natural 	1	n	0	0    	 	0.0	0	92.64288640000001	92.7428168	0.0999304
104289	100	6	stimuli\movArt\car\ma_car03.jpg                  	1	1	1	ma_car03.jpg         	movArt   	2	car       	5	car03       	52	not_alive	0	moves	1	artefact	0	n	0	0    	 	0.0	0	92.792888	92.8927949	0.0999068999999999
104439	100	7	stimuli\animals2\lemur\animal_lemur03.jpg        	1	1	1	animal_lemur03.jpg   	animals2 	1	lemur     	23	lemur03     	232	alive    	1	moves	1	natural 	1	n	0	0    	 	0.0	0	92.94289309999999	93.0428106	0.0999174999999999
104590	100	8	stimuli\animals\horse\animal_horse01.jpg         	1	1	1	animal_horse01.jpg   	animals  	0	horse     	20	horse01     	200	alive    	1	moves	1	natural 	1	n	0	0    	 	0.0	0	93.0931752	93.19281070000001	0.0996355
104739	100	9	stimuli\plant\tree\plant_tree10.jpg              	1	1	1	plant_tree10.jpg     	plant    	6	tree      	35	tree10      	359	alive    	1	still	0	natural 	1	n	0	0    	 	0.0	0	93.24287840000001	93.34280270000001	0.09992430000000001
104889	100	10	stimuli\animals\horse\animal_horse03.jpg         	1	1	1	animal_horse03.jpg   	animals  	0	horse     	20	horse03     	202	alive    	1	moves	1	natural 	1	n	0	0    	 	0.0	0	93.3928759	93.4928072	0.0999313
105039	100	11	stimuli\movArt\train\ma_train03.jpg              	1	1	1	ma_train03.jpg       	movArt   	2	train     	34	train03     	342	not_alive	0	moves	1	artefact	0	n	0	0    	 	0.0	0	93.5428969	93.6427923	0.0998954
105189	100	12	stimuli\nonmovArt\lock\nma_lock02.jpg            	1	1	1	nma_lock02.jpg       	nonmovArt	4	lock      	24	lock02      	241	not_alive	0	still	0	artefact	0	n	0	0    	 	0.0	0	93.69289	93.7927823	0.0998923
105339	100	13	stimuli\nonmovNat\sand\nmn_sand08.jpg            	1	1	1	nmn_sand08.jpg       	nonmovNat	5	sand      	31	sand08      	317	not_alive	0	still	0	natural 	1	n	0	0    	 	0.0	0	93.8428687	93.94278879999999	0.0999201
105489	100	14	stimuli\nonmovArt\lock\nma_lock05.jpg            	1	1	1	nma_lock05.jpg       	nonmovArt	4	lock      	24	lock05      	244	not_alive	0	still	0	artefact	0	n	0	0    	 	0.0	0	93.99287609999999	94.09280059999999	0.0999245
105639	100	15	stimuli\animals2\pigeon\animal_pigeon06.jpg      	1	1	1	animal_pigeon06.jpg  	animals2 	1	pigeon    	28	pigeon06    	285	alive    	1	moves	1	natural 	1	n	0	0    	 	0.0	0	94.14288420000001	94.2427485	0.0998643
105789	100	16	stimuli\movNat\river\mn_river05.jpg              	1	1	1	mn_river05.jpg       	movNat   	3	river     	29	river05     	294	not_alive	0	moves	1	natural 	1	n	0	0    	 	0.0	0	94.29286540000001	94.3927801	0.0999147
105939	100	17	stimuli\plant\tree\plant_tree02.jpg              	1	1	1	plant_tree02.jpg     	plant    	6	tree      	35	tree02      	351	alive    	1	still	0	natural 	1	n	0	0    	 	0.0	0	94.4428855	94.54277900000001	0.0998935
106089	100	18	stimuli\animals2\lemur\animal_lemur06.jpg        	1	1	1	animal_lemur06.jpg   	animals2 	1	lemur     	23	lemur06     	235	alive    	1	moves	1	natural 	1	n	0	0    	 	0.0	0	94.5928768	94.6927798	0.0999029999999999
106239	100	19	stimuli\plant\grass\plant_grass02.jpg            	1	1	1	plant_grass02.jpg    	plant    	6	grass     	17	grass02     	171	alive    	1	still	0	natural 	1	n	0	0    	 	0.0	0	94.7428699	94.8427724	0.0999024999999999
106389	100	20	stimuli\animals\dog\animal_dog10.jpg             	1	1	1	animal_dog10.jpg     	animals  	0	dog       	11	dog10       	119	alive    	1	moves	1	natural 	1	n	0	0    	 	0.0	0	94.8928757	94.9927731	0.0998974
106539	100	21	stimuli\movNat\hotspring\mn_hotspring06.jpg      	1	1	1	mn_hotspring06.jpg   	movNat   	3	hotspring 	21	hotspring06 	215	not_alive	0	moves	1	natural 	1	n	0	0    	 	0.0	0	95.04287009999999	95.14275390000002	0.09988380000000001
106689	100	22	stimuli\movArt\car\ma_car10.jpg                  	1	1	1	ma_car10.jpg         	movArt   	2	car       	5	car10       	59	not_alive	0	moves	1	artefact	0	n	0	0    	 	0.0	0	95.1928546	95.29277629999999	0.0999217
106839	100	23	stimuli\nonmovNat\shell\nmn_shell06.jpg          	1	1	1	nmn_shell06.jpg      	nonmovNat	5	shell     	32	shell06     	325	not_alive	0	still	0	natural 	1	n	0	0    	 	0.0	0	95.3428593	95.44277629999999	0.0999169999999999
106989	100	24	stimuli\movArt\boat\ma_boat04.jpg                	1	1	1	ma_boat04.jpg        	movArt   	2	boat      	2	boat04      	23	not_alive	0	moves	1	artefact	0	n	0	0    	 	0.0	0	95.4928874	95.59277759999999	0.0998902
107139	100	25	stimuli\movNat\waves\mn_waves02.jpg              	1	1	1	mn_waves02.jpg       	movNat   	3	waves     	38	waves02     	381	not_alive	0	moves	1	natural 	1	n	0	0    	 	0.0	0	95.6428598	95.74278029999999	0.09992050000000001
107289	100	26	stimuli\animals2\whale\animal_whale08.jpg        	1	1	1	animal_whale08.jpg   	animals2 	1	whale     	39	whale08     	397	alive    	1	moves	1	natural 	1	n	0	0    	 	0.0	0	95.7928474	95.892767	0.0999196
107439	100	27	stimuli\plant\cactus\plant_cactus04.jpg          	1	1	1	plant_cactus04.jpg   	plant    	6	cactus    	4	cactus04    	43	alive    	1	still	0	natural 	1	n	0	0    	 	0.0	0	95.9428687	96.04275729999999	0.09988860000000001
107589	100	28	stimuli\animals\cat\animal_cat10.jpg             	1	1	1	animal_cat10.jpg     	animals  	0	cat       	6	cat10       	69	alive    	1	moves	1	natural 	1	n	0	0    	 	0.0	0	96.0928422	96.1927807	0.0999385
107739	100	29	stimuli\plant2\lemontree\plant_lemontree03.jpg   	1	1	1	plant_lemontree03.jpg	plant2   	7	lemontree 	22	lemontree03 	222	alive    	1	still	0	natural 	1	n	0	0    	 	0.0	0	96.2428288	96.3427681	0.09993930000000001
107889	100	30	stimuli\plant2\fern\plant_fern04.jpg             	1	1	1	plant_fern04.jpg     	plant2   	7	fern      	14	fern04      	143	alive    	1	still	0	natural 	1	n	0	0    	 	0.0	0	96.39285229999999	96.4927694	0.09991710000000001
108039	100	31	stimuli\nonmovNat\shell\nmn_shell01.jpg          	1	1	1	nmn_shell01.jpg      	nonmovNat	5	shell     	32	shell01     	320	not_alive	0	still	0	natural 	1	n	0	0    	 	0.0	0	96.5428572	96.6427655	0.0999083
108189	100	32	stimuli\plant2\moss\plant_moss10.jpg             	1	1	1	plant_moss10.jpg     	plant2   	7	moss      	25	moss10      	259	alive    	1	still	0	natural 	1	n	0	0    	 	0.0	0	96.6928569	96.7927623	0.0999053999999999
108339	100	33	stimuli\movNat\river\mn_river09.jpg              	1	1	1	mn_river09.jpg       	movNat   	3	river     	29	river09     	298	not_alive	0	moves	1	natural 	1	n	0	0    	 	0.0	0	96.8428324	96.942763	0.09993060000000001
108489	100	34	stimuli\nonmovNat\crystal\nmn_crystal09.jpg      	1	1	1	nmn_crystal09.jpg    	nonmovNat	5	crystal   	10	crystal09   	108	not_alive	0	still	0	natural 	1	n	0	0    	 	0.0	0	96.99284540000001	97.09275749999999	0.0999121
108639	100	35	stimuli\movArt\boat\ma_boat02.jpg                	1	1	1	ma_boat02.jpg        	movArt   	2	boat      	2	boat02      	21	not_alive	0	moves	1	artefact	0	n	0	0    	 	0.0	0	97.14284649999999	97.24275959999999	0.0999131
108789	100	36	stimuli\animals2\lemur\animal_lemur07.jpg        	1	1	1	animal_lemur07.jpg   	animals2 	1	lemur     	23	lemur07     	236	alive    	1	moves	1	natural 	1	n	0	0    	 	0.0	0	97.2928623	97.3927621	0.09989980000000001
108939	100	37	stimuli\nonmovArt\bench\nma_bench06.jpg          	1	1	1	nma_bench06.jpg      	nonmovArt	4	bench     	1	bench06     	15	not_alive	0	still	0	artefact	0	n	0	0    	 	0.0	0	97.44282059999999	97.5427552	0.0999346
109089	100	38	stimuli\plant2\palmtree\plant_palmtree07.jpg     	1	1	1	plant_palmtree07.jpg 	plant2   	7	palmtree  	27	palmtree07  	276	alive    	1	still	0	natural 	1	n	0	0    	 	0.0	0	97.5928223	97.6927689	0.0999466
109239	100	39	stimuli\nonmovArt\headphones\nma_headphones02.jpg	1	1	1	nma_headphones02.jpg 	nonmovArt	4	headphones	18	headphones02	181	not_alive	0	still	0	artefact	0	n	0	0    	 	0.0	0	97.74284240000001	97.8427485	0.0999061
109389	100	40	stimuli\plant2\lemontree\plant_lemontree03.jpg   	1	1	1	plant_lemontree03.jpg	plant2   	7	lemontree 	22	lemontree03 	222	alive    	1	still	0	natural 	1	n	0	0    	 	0.0	0	97.8928553	97.9927316	0.0998763
109539	100	41	stimuli\nonmovArt\bench\nma_bench07.jpg          	1	1	1	nma_bench07.jpg      	nonmovArt	4	bench     	1	bench07     	16	not_alive	0	still	0	artefact	0	n	0	0    	 	0.0	0	98.04282070000001	98.142744	0.0999233
109689	100	42	stimuli\movArt\car\ma_car07.jpg                  	1	1	1	ma_car07.jpg         	movArt   	2	car       	5	car07       	56	not_alive	0	moves	1	artefact	0	n	0	0    	 	0.0	0	98.1928264	98.29274509999999	0.0999187
109839	100	43	stimuli\movNat\hotspring\mn_hotspring05.jpg      	1	1	1	mn_hotspring05.jpg   	movNat   	3	hotspring 	21	hotspring05 	214	not_alive	0	moves	1	natural 	1	n	0	0    	 	0.0	0	98.34281829999999	98.44273129999999	0.099913
109989	100	44	stimuli\plant\flower\plant_flower06.jpg          	1	1	1	plant_flower06.jpg   	plant    	6	flower    	16	flower06    	165	alive    	1	still	0	natural 	1	n	0	0    	 	0.0	0	98.49281640000001	98.5927442	0.0999278
110139	100	45	stimuli\movArt\train\ma_train01.jpg              	1	1	1	ma_train01.jpg       	movArt   	2	train     	34	train01     	340	not_alive	0	moves	1	artefact	0	n	0	0    	 	0.0	0	98.6428207	98.74272990000001	0.0999092
110289	100	46	stimuli\movArt\boat\ma_boat09.jpg                	1	1	1	ma_boat09.jpg        	movArt   	2	boat      	2	boat09      	28	not_alive	0	moves	1	artefact	0	n	0	0    	 	0.0	0	98.7928321	98.8927468	0.0999147
110439	100	47	stimuli\animals2\tiger\animal_tiger08.jpg        	1	1	1	animal_tiger08.jpg   	animals2 	1	tiger     	33	tiger08     	337	alive    	1	moves	1	natural 	1	n	0	0    	 	0.0	0	98.9428173	99.0427207	0.0999034
110589	100	48	stimuli\movArt\bus\ma_bus09.jpg                  	1	1	1	ma_bus09.jpg         	movArt   	2	bus       	3	bus09       	38	not_alive	0	moves	1	artefact	0	n	0	0    	 	0.0	0	99.0928161	99.1927193	0.0999032
110739	100	49	stimuli\plant2\clover\plant_clover07.jpg         	1	1	1	plant_clover07.jpg   	plant2   	7	clover    	9	clover07    	96	alive    	1	still	0	natural 	1	n	0	0    	 	0.0	0	99.2428135	99.34273990000001	0.0999263999999999
110889	100	50	stimuli\plant2\clover\plant_clover01.jpg         	1	1	1	plant_clover01.jpg   	plant2   	7	clover    	9	clover01    	90	alive    	1	still	0	natural 	1	n	0	0    	 	0.0	0	99.3928145	99.49272090000001	0.0999063999999999
111039	100	51	stimuli\animals2\bee\animal_bee05.jpg            	1	1	1	animal_bee05.jpg     	animals2 	1	bee       	0	bee05       	4	alive    	1	moves	1	natural 	1	n	0	0    	 	0.0	0	99.54281040000001	99.6427248	0.0999143999999999
111189	100	52	stimuli\plant2\fern\plant_fern03.jpg             	1	1	1	plant_fern03.jpg     	plant2   	7	fern      	14	fern03      	142	alive    	1	still	0	natural 	1	n	0	0    	 	0.0	0	99.6928051	99.7927308	0.0999256999999999
111339	100	53	stimuli\animals2\bee\animal_bee05.jpg            	1	1	1	animal_bee05.jpg     	animals2 	1	bee       	0	bee05       	4	alive    	1	moves	1	natural 	1	n	1	0    	 	0.0	0	99.8428137	99.9427191	0.0999053999999999
111489	100	54	stimuli\nonmovArt\clothespeg\nma_clothespeg04.jpg	1	1	1	nma_clothespeg04.jpg 	nonmovArt	4	clothespeg	8	clothespeg04	83	not_alive	0	still	0	artefact	0	n	0	0    	 	0.0	0	99.99282190000001	100.0927291	0.0999072
111639	100	55	stimuli\animals\eagle\animal_eagle01.jpg         	1	1	1	animal_eagle01.jpg   	animals  	0	eagle     	13	eagle01     	130	alive    	1	moves	1	natural 	1	n	0	1    	f	0.4000856	1	100.1428115	100.24270959999998	0.09989810000000002
111789	100	56	stimuli\nonmovArt\lock\nma_lock05.jpg            	1	1	1	nma_lock05.jpg       	nonmovArt	4	lock      	24	lock05      	244	not_alive	0	still	0	artefact	0	n	0	0    	 	0.0	0	100.29281529999999	100.39273490000001	0.0999196
111939	100	57	stimuli\nonmovArt\headphones\nma_headphones01.jpg	1	1	1	nma_headphones01.jpg 	nonmovArt	4	headphones	18	headphones01	180	not_alive	0	still	0	artefact	0	n	0	0    	 	0.0	0	100.4427979	100.542707	0.0999091
112089	100	58	stimuli\animals2\pigeon\animal_pigeon09.jpg      	1	1	1	animal_pigeon09.jpg  	animals2 	1	pigeon    	28	pigeon09    	288	alive    	1	moves	1	natural 	1	n	0	0    	 	0.0	0	100.59279690000001	100.6927195	0.09992260000000001
112239	100	59	stimuli\nonmovNat\rock\nmn_rock03.jpg            	1	1	1	nmn_rock03.jpg       	nonmovNat	5	rock      	30	rock03      	302	not_alive	0	still	0	natural 	1	n	0	0    	 	0.0	0	100.7427952	100.8427073	0.0999121
112389	100	60	stimuli\animals\eagle\animal_eagle10.jpg         	1	1	1	animal_eagle10.jpg   	animals  	0	eagle     	13	eagle10     	139	alive    	1	moves	1	natural 	1	n	0	0    	 	0.0	0	100.89291180000001	100.992717	0.0998052
112539	100	61	stimuli\plant\vine\plant_vine07.jpg              	1	1	1	plant_vine07.jpg     	plant    	6	vine      	36	vine07      	366	alive    	1	still	0	natural 	1	n	0	0    	 	0.0	0	101.0427844	101.1427084	0.099924
112689	100	62	stimuli\animals\dog\animal_dog07.jpg             	1	1	1	animal_dog07.jpg     	animals  	0	dog       	11	dog07       	116	alive    	1	moves	1	natural 	1	n	0	0    	 	0.0	0	101.19279329999999	101.2927118	0.0999185
112839	100	63	stimuli\plant2\palmtree\plant_palmtree06.jpg     	1	1	1	plant_palmtree06.jpg 	plant2   	7	palmtree  	27	palmtree06  	275	alive    	1	still	0	natural 	1	n	0	0    	 	0.0	0	101.34279079999999	101.4427031	0.09991230000000001
112989	100	64	stimuli\nonmovNat\crystal\nmn_crystal04.jpg      	1	1	1	nmn_crystal04.jpg    	nonmovNat	5	crystal   	10	crystal04   	103	not_alive	0	still	0	natural 	1	n	1	0    	 	0.0	0	101.4927957	101.5927078	0.0999121
113139	100	65	stimuli\plant\vine\plant_vine03.jpg              	1	1	1	plant_vine03.jpg     	plant    	6	vine      	36	vine03      	362	alive    	1	still	0	natural 	1	n	0	0    	 	0.0	0	101.6427791	101.74270609999999	0.099927
113289	100	66	stimuli\nonmovNat\sand\nmn_sand08.jpg            	1	1	1	nmn_sand08.jpg       	nonmovNat	5	sand      	31	sand08      	317	not_alive	0	still	0	natural 	1	n	0	1    	f	0.3918191	1	101.7926358	101.8927245	0.10008869999999999
113439	100	67	stimuli\nonmovArt\clothespeg\nma_clothespeg09.jpg	1	1	1	nma_clothespeg09.jpg 	nonmovArt	4	clothespeg	8	clothespeg09	88	not_alive	0	still	0	artefact	0	n	0	0    	 	0.0	0	101.94282290000001	102.04271209999999	0.0998892
113589	100	68	stimuli\animals2\pigeon\animal_pigeon06.jpg      	1	1	1	animal_pigeon06.jpg  	animals2 	1	pigeon    	28	pigeon06    	285	alive    	1	moves	1	natural 	1	n	0	0    	 	0.0	0	102.09281700000001	102.1927162	0.0998992
113739	100	69	stimuli\movNat\waterfall\mn_waterfall03.jpg      	1	1	1	mn_waterfall03.jpg   	movNat   	3	waterfall 	37	waterfall03 	372	not_alive	0	moves	1	natural 	1	n	0	0    	 	0.0	0	102.24281620000001	102.3426578	0.0998416
113889	100	70	stimuli\movArt\helicopter\ma_helicopter07.jpg    	1	1	1	ma_helicopter07.jpg  	movArt   	2	helicopter	19	helicopter07	196	not_alive	0	moves	1	artefact	0	n	0	0    	 	0.0	0	102.39277249999999	102.4926817	0.0999092
114039	100	71	stimuli\plant2\clover\plant_clover04.jpg         	1	1	1	plant_clover04.jpg   	plant2   	7	clover    	9	clover04    	93	alive    	1	still	0	natural 	1	n	0	0    	 	0.0	0	102.54277409999999	102.6426509	0.0998768
114189	100	72	stimuli\nonmovArt\mug\nma_mug02.jpg              	1	1	1	nma_mug02.jpg        	nonmovArt	4	mug       	26	mug02       	261	not_alive	0	still	0	artefact	0	n	0	0    	 	0.0	0	102.6927747	102.792736	0.0999613
114339	100	73	stimuli\nonmovNat\cliff\nmn_cliff10.jpg          	1	1	1	nmn_cliff10.jpg      	nonmovNat	5	cliff     	7	cliff10     	79	not_alive	0	still	0	natural 	1	n	0	0    	 	0.0	0	102.8428197	102.94272240000001	0.0999027
114489	100	74	stimuli\animals2\whale\animal_whale10.jpg        	1	1	1	animal_whale10.jpg   	animals2 	1	whale     	39	whale10     	399	alive    	1	moves	1	natural 	1	n	0	0    	 	0.0	0	102.99279820000001	103.0927375	0.09993930000000001
114639	100	75	stimuli\nonmovArt\mug\nma_mug07.jpg              	1	1	1	nma_mug07.jpg        	nonmovArt	4	mug       	26	mug07       	266	not_alive	0	still	0	artefact	0	n	0	0    	 	0.0	0	103.1428043	103.2427113	0.09990700000000001
114789	100	76	stimuli\plant2\fern\plant_fern05.jpg             	1	1	1	plant_fern05.jpg     	plant2   	7	fern      	14	fern05      	144	alive    	1	still	0	natural 	1	n	0	0    	 	0.0	0	103.2928106	103.3927166	0.099906
114939	100	77	stimuli\nonmovArt\headphones\nma_headphones09.jpg	1	1	1	nma_headphones09.jpg 	nonmovArt	4	headphones	18	headphones09	188	not_alive	0	still	0	artefact	0	n	0	0    	 	0.0	0	103.4428062	103.5426475	0.09984130000000001
115089	100	78	stimuli\animals\cat\animal_cat08.jpg             	1	1	1	animal_cat08.jpg     	animals  	0	cat       	6	cat08       	67	alive    	1	moves	1	natural 	1	n	0	0    	 	0.0	0	103.59281740000002	103.69269759999999	0.0998802
115239	100	79	stimuli\movNat\fire\mn_fire06.jpg                	1	1	1	mn_fire06.jpg        	movNat   	3	fire      	15	fire06      	155	not_alive	0	moves	1	natural 	1	n	0	0    	 	0.0	0	103.74279090000002	103.8427162	0.09992530000000001
118089	100	80	stimuli\movArt\train\ma_train01.jpg              	1	2	1	ma_train01.jpg       	movArt   	2	train     	34	train01     	340	not_alive	0	moves	1	artefact	0	n	0	0    	 	0.0	0	106.5927785	106.6926476	0.0998691
118239	100	81	stimuli\nonmovNat\cliff\nmn_cliff05.jpg          	1	2	1	nmn_cliff05.jpg      	nonmovNat	5	cliff     	7	cliff05     	74	not_alive	0	still	0	natural 	1	n	0	0    	 	0.0	0	106.74274380000001	106.8428112	0.1000674
118389	100	82	stimuli\nonmovNat\sand\nmn_sand07.jpg            	1	2	1	nmn_sand07.jpg       	nonmovNat	5	sand      	31	sand07      	316	not_alive	0	still	0	natural 	1	n	0	0    	 	0.0	0	106.89273270000001	106.9926527	0.09992000000000001
118539	100	83	stimuli\animals\dolphin\animal_dolphin07.jpg     	1	2	1	animal_dolphin07.jpg 	animals  	0	dolphin   	12	dolphin07   	126	alive    	1	moves	1	natural 	1	n	0	0    	 	0.0	0	107.0427125	107.1426487	0.0999362
118689	100	84	stimuli\nonmovNat\rock\nmn_rock03.jpg            	1	2	1	nmn_rock03.jpg       	nonmovNat	5	rock      	30	rock03      	302	not_alive	0	still	0	natural 	1	n	0	0    	 	0.0	0	107.1927213	107.29264939999999	0.0999281
118839	100	85	stimuli\movNat\waves\mn_waves10.jpg              	1	2	1	mn_waves10.jpg       	movNat   	3	waves     	38	waves10     	389	not_alive	0	moves	1	natural 	1	n	0	0    	 	0.0	0	107.3427243	107.4426348	0.0999105
118989	100	86	stimuli\movNat\hotspring\mn_hotspring04.jpg      	1	2	1	mn_hotspring04.jpg   	movNat   	3	hotspring 	21	hotspring04 	213	not_alive	0	moves	1	natural 	1	n	0	0    	 	0.0	0	107.492713	107.5926392	0.0999261999999999
119139	100	87	stimuli\movNat\waterfall\mn_waterfall06.jpg      	1	2	1	mn_waterfall06.jpg   	movNat   	3	waterfall 	37	waterfall06 	375	not_alive	0	moves	1	natural 	1	n	0	0    	 	0.0	0	107.6427265	107.7426393	0.09991280000000001
119289	100	88	stimuli\plant\grass\plant_grass06.jpg            	1	2	1	plant_grass06.jpg    	plant    	6	grass     	17	grass06     	175	alive    	1	still	0	natural 	1	n	0	0    	 	0.0	0	107.79270929999998	107.8926385	0.0999292
119439	100	89	stimuli\animals2\bee\animal_bee09.jpg            	1	2	1	animal_bee09.jpg     	animals2 	1	bee       	0	bee09       	8	alive    	1	moves	1	natural 	1	n	0	0    	 	0.0	0	107.942745	108.0426311	0.0998861
119589	100	90	stimuli\nonmovNat\shell\nmn_shell07.jpg          	1	2	1	nmn_shell07.jpg      	nonmovNat	5	shell     	32	shell07     	326	not_alive	0	still	0	natural 	1	n	0	0    	 	0.0	0	108.09271650000001	108.1926236	0.0999071
119739	100	91	stimuli\nonmovArt\bench\nma_bench08.jpg          	1	2	1	nma_bench08.jpg      	nonmovArt	4	bench     	1	bench08     	17	not_alive	0	still	0	artefact	0	n	0	0    	 	0.0	0	108.2427129	108.34263590000002	0.099923
119889	100	92	stimuli\plant\vine\plant_vine09.jpg              	1	2	1	plant_vine09.jpg     	plant    	6	vine      	36	vine09      	368	alive    	1	still	0	natural 	1	n	0	0    	 	0.0	0	108.3927206	108.49261820000001	0.09989760000000002
120039	100	93	stimuli\movNat\river\mn_river04.jpg              	1	2	1	mn_river04.jpg       	movNat   	3	river     	29	river04     	293	not_alive	0	moves	1	natural 	1	n	0	0    	 	0.0	0	108.54271409999998	108.6426253	0.0999111999999999
120189	100	94	stimuli\plant2\palmtree\plant_palmtree06.jpg     	1	2	1	plant_palmtree06.jpg 	plant2   	7	palmtree  	27	palmtree06  	275	alive    	1	still	0	natural 	1	n	0	0    	 	0.0	0	108.692699	108.7926365	0.0999375
120339	100	95	stimuli\nonmovArt\mug\nma_mug10.jpg              	1	2	1	nma_mug10.jpg        	nonmovArt	4	mug       	26	mug10       	269	not_alive	0	still	0	artefact	0	n	0	0    	 	0.0	0	108.8427114	108.94263070000001	0.0999193
120489	100	96	stimuli\movNat\fire\mn_fire01.jpg                	1	2	1	mn_fire01.jpg        	movNat   	3	fire      	15	fire01      	150	not_alive	0	moves	1	natural 	1	n	0	0    	 	0.0	0	108.99269790000001	109.09262439999999	0.0999265
120639	100	97	stimuli\plant2\moss\plant_moss06.jpg             	1	2	1	plant_moss06.jpg     	plant2   	7	moss      	25	moss06      	255	alive    	1	still	0	natural 	1	n	1	0    	 	0.0	0	109.1426945	109.24261969999999	0.0999251999999999
120789	100	98	stimuli\movArt\bus\ma_bus10.jpg                  	1	2	1	ma_bus10.jpg         	movArt   	2	bus       	3	bus10       	39	not_alive	0	moves	1	artefact	0	n	0	0    	 	0.0	0	109.29270220000001	109.3926297	0.0999275
120939	100	99	stimuli\plant\flower\plant_flower05.jpg          	1	2	1	plant_flower05.jpg   	plant    	6	flower    	16	flower05    	164	alive    	1	still	0	natural 	1	n	0	1    	f	0.2920659	1	109.4427067	109.5426281	0.0999214
121089	100	100	stimuli\plant\tree\plant_tree10.jpg              	1	2	1	plant_tree10.jpg     	plant    	6	tree      	35	tree10      	359	alive    	1	still	0	natural 	1	n	0	0    	 	0.0	0	109.59270249999999	109.6926098	0.0999073
121239	100	101	stimuli\movArt\helicopter\ma_helicopter05.jpg    	1	2	1	ma_helicopter05.jpg  	movArt   	2	helicopter	19	helicopter05	194	not_alive	0	moves	1	artefact	0	n	0	0    	 	0.0	0	109.7427486	109.84271670000001	0.0999681
121389	100	102	stimuli\animals\dolphin\animal_dolphin10.jpg     	1	2	1	animal_dolphin10.jpg 	animals  	0	dolphin   	12	dolphin10   	129	alive    	1	moves	1	natural 	1	n	0	0    	 	0.0	0	109.89280020000001	109.9926187	0.0998184999999999
121539	100	103	stimuli\animals2\tiger\animal_tiger02.jpg        	1	2	1	animal_tiger02.jpg   	animals2 	1	tiger     	33	tiger02     	331	alive    	1	moves	1	natural 	1	n	0	0    	 	0.0	0	110.0427564	110.14263600000001	0.0998796
121689	100	104	stimuli\nonmovNat\rock\nmn_rock09.jpg            	1	2	1	nmn_rock09.jpg       	nonmovNat	5	rock      	30	rock09      	308	not_alive	0	still	0	natural 	1	n	0	0    	 	0.0	0	110.1927181	110.2926226	0.0999045
121839	100	105	stimuli\movArt\helicopter\ma_helicopter03.jpg    	1	2	1	ma_helicopter03.jpg  	movArt   	2	helicopter	19	helicopter03	192	not_alive	0	moves	1	artefact	0	n	0	0    	 	0.0	0	110.34271580000001	110.44259070000001	0.0998748999999999
121989	100	106	stimuli\plant\flower\plant_flower02.jpg          	1	2	1	plant_flower02.jpg   	plant    	6	flower    	16	flower02    	161	alive    	1	still	0	natural 	1	n	0	0    	 	0.0	0	110.4927115	110.592621	0.0999095
122139	100	107	stimuli\animals2\tiger\animal_tiger10.jpg        	1	2	1	animal_tiger10.jpg   	animals2 	1	tiger     	33	tiger10     	339	alive    	1	moves	1	natural 	1	n	0	0    	 	0.0	0	110.6426697	110.7426163	0.0999466
122289	100	108	stimuli\animals2\whale\animal_whale05.jpg        	1	2	1	animal_whale05.jpg   	animals2 	1	whale     	39	whale05     	394	alive    	1	moves	1	natural 	1	n	0	0    	 	0.0	0	110.79271029999998	110.8926257	0.0999154
122439	100	109	stimuli\plant\grass\plant_grass03.jpg            	1	2	1	plant_grass03.jpg    	plant    	6	grass     	17	grass03     	172	alive    	1	still	0	natural 	1	n	0	0    	 	0.0	0	110.9427116	111.0425807	0.0998691
122589	100	110	stimuli\plant\cactus\plant_cactus07.jpg          	1	2	1	plant_cactus07.jpg   	plant    	6	cactus    	4	cactus07    	46	alive    	1	still	0	natural 	1	n	0	0    	 	0.0	0	111.09270359999998	111.19261740000002	0.0999138
122739	100	111	stimuli\plant2\moss\plant_moss06.jpg             	1	2	1	plant_moss06.jpg     	plant2   	7	moss      	25	moss06      	255	alive    	1	still	0	natural 	1	n	0	0    	 	0.0	0	111.24266589999999	111.3426067	0.0999408
122889	100	112	stimuli\movNat\fire\mn_fire01.jpg                	1	2	1	mn_fire01.jpg        	movNat   	3	fire      	15	fire01      	150	not_alive	0	moves	1	natural 	1	n	0	0    	 	0.0	0	111.39268270000001	111.4926007	0.0999179999999999
123039	100	113	stimuli\plant\cactus\plant_cactus04.jpg          	1	2	1	plant_cactus04.jpg   	plant    	6	cactus    	4	cactus04    	43	alive    	1	still	0	natural 	1	n	0	0    	 	0.0	0	111.5426767	111.64257590000001	0.0998992
123189	100	114	stimuli\animals\eagle\animal_eagle08.jpg         	1	2	1	animal_eagle08.jpg   	animals  	0	eagle     	13	eagle08     	137	alive    	1	moves	1	natural 	1	n	0	0    	 	0.0	0	111.6927002	111.79261229999999	0.0999121
123339	100	115	stimuli\animals\dog\animal_dog09.jpg             	1	2	1	animal_dog09.jpg     	animals  	0	dog       	11	dog09       	118	alive    	1	moves	1	natural 	1	n	0	0    	 	0.0	0	111.8426692	111.9426193	0.09995010000000001
123489	100	116	stimuli\nonmovArt\clothespeg\nma_clothespeg07.jpg	1	2	1	nma_clothespeg07.jpg 	nonmovArt	4	clothespeg	8	clothespeg07	86	not_alive	0	still	0	artefact	0	n	0	0    	 	0.0	0	111.99269550000001	112.09259579999998	0.0999003
123639	100	117	stimuli\animals\dolphin\animal_dolphin06.jpg     	1	2	1	animal_dolphin06.jpg 	animals  	0	dolphin   	12	dolphin06   	125	alive    	1	moves	1	natural 	1	n	0	0    	 	0.0	0	112.14269909999999	112.24258390000001	0.09988480000000001
123789	100	118	stimuli\animals\cat\animal_cat02.jpg             	1	2	1	animal_cat02.jpg     	animals  	0	cat       	6	cat02       	61	alive    	1	moves	1	natural 	1	n	0	0    	 	0.0	0	112.29269860000001	112.392597	0.0998984
123939	100	119	stimuli\nonmovNat\crystal\nmn_crystal07.jpg      	1	2	1	nmn_crystal07.jpg    	nonmovNat	5	crystal   	10	crystal07   	106	not_alive	0	still	0	natural 	1	n	0	0    	 	0.0	0	112.44266280000001	112.5426125	0.0999497
124089	100	120	stimuli\animals\dolphin\animal_dolphin03.jpg     	1	2	1	animal_dolphin03.jpg 	animals  	0	dolphin   	12	dolphin03   	122	alive    	1	moves	1	natural 	1	n	0	0    	 	0.0	0	112.5926662	112.69258889999999	0.0999227
124239	100	121	stimuli\animals2\lemur\animal_lemur04.jpg        	1	2	1	animal_lemur04.jpg   	animals2 	1	lemur     	23	lemur04     	233	alive    	1	moves	1	natural 	1	n	0	0    	 	0.0	0	112.74269040000001	112.8425623	0.0998719
124389	100	122	stimuli\nonmovNat\crystal\nmn_crystal04.jpg      	1	2	1	nmn_crystal04.jpg    	nonmovNat	5	crystal   	10	crystal04   	103	not_alive	0	still	0	natural 	1	n	0	0    	 	0.0	0	112.8926781	112.9925899	0.09991180000000001
124539	100	123	stimuli\movNat\waterfall\mn_waterfall05.jpg      	1	2	1	mn_waterfall05.jpg   	movNat   	3	waterfall 	37	waterfall05 	374	not_alive	0	moves	1	natural 	1	n	0	0    	 	0.0	0	113.04266170000001	113.142604	0.0999423
124689	100	124	stimuli\movArt\train\ma_train08.jpg              	1	2	1	ma_train08.jpg       	movArt   	2	train     	34	train08     	347	not_alive	0	moves	1	artefact	0	n	0	0    	 	0.0	0	113.19266809999999	113.2925862	0.09991810000000001
124839	100	125	stimuli\animals\cat\animal_cat03.jpg             	1	2	1	animal_cat03.jpg     	animals  	0	cat       	6	cat03       	62	alive    	1	moves	1	natural 	1	n	0	0    	 	0.0	0	113.3426392	113.44256229999999	0.09992310000000001
124989	100	126	stimuli\plant\tree\plant_tree08.jpg              	1	2	1	plant_tree08.jpg     	plant    	6	tree      	35	tree08      	357	alive    	1	still	0	natural 	1	n	0	0    	 	0.0	0	113.4927239	113.59259650000001	0.0998726
125139	100	127	stimuli\plant\flower\plant_flower10.jpg          	1	2	1	plant_flower10.jpg   	plant    	6	flower    	16	flower10    	169	alive    	1	still	0	natural 	1	n	0	0    	 	0.0	0	113.64263799999999	113.7425848	0.0999468
125289	100	128	stimuli\plant\flower\plant_flower01.jpg          	1	2	1	plant_flower01.jpg   	plant    	6	flower    	16	flower01    	160	alive    	1	still	0	natural 	1	n	0	0    	 	0.0	0	113.79267420000001	113.89261770000002	0.0999434999999999
125439	100	129	stimuli\plant\grass\plant_grass08.jpg            	1	2	1	plant_grass08.jpg    	plant    	6	grass     	17	grass08     	177	alive    	1	still	0	natural 	1	n	0	0    	 	0.0	0	113.94266809999999	114.0425591	0.099891
125589	100	130	stimuli\nonmovNat\rock\nmn_rock07.jpg            	1	2	1	nmn_rock07.jpg       	nonmovNat	5	rock      	30	rock07      	306	not_alive	0	still	0	natural 	1	n	0	0    	 	0.0	0	114.0926585	114.19257649999999	0.0999179999999999
125739	100	131	stimuli\animals2\bee\animal_bee05.jpg            	1	2	1	animal_bee05.jpg     	animals2 	1	bee       	0	bee05       	4	alive    	1	moves	1	natural 	1	n	0	0    	 	0.0	0	114.2426243	114.34255279999999	0.0999285
125889	100	132	stimuli\movArt\car\ma_car10.jpg                  	1	2	1	ma_car10.jpg         	movArt   	2	car       	5	car10       	59	not_alive	0	moves	1	artefact	0	n	0	0    	 	0.0	0	114.3926584	114.4925767	0.0999183
126039	100	133	stimuli\plant2\palmtree\plant_palmtree04.jpg     	1	2	1	plant_palmtree04.jpg 	plant2   	7	palmtree  	27	palmtree04  	273	alive    	1	still	0	natural 	1	n	0	0    	 	0.0	0	114.5426604	114.6425453	0.0998849
126189	100	134	stimuli\nonmovArt\headphones\nma_headphones05.jpg	1	2	1	nma_headphones05.jpg 	nonmovArt	4	headphones	18	headphones05	184	not_alive	0	still	0	artefact	0	n	0	0    	 	0.0	0	114.6926632	114.79258	0.0999168
126339	100	135	stimuli\animals\horse\animal_horse04.jpg         	1	2	1	animal_horse04.jpg   	animals  	0	horse     	20	horse04     	203	alive    	1	moves	1	natural 	1	n	0	0    	 	0.0	0	114.842626	114.9425497	0.0999236999999999
126489	100	136	stimuli\animals\eagle\animal_eagle09.jpg         	1	2	1	animal_eagle09.jpg   	animals  	0	eagle     	13	eagle09     	138	alive    	1	moves	1	natural 	1	n	1	0    	 	0.0	0	114.9926383	115.0925625	0.0999241999999999
126639	100	137	stimuli\movNat\river\mn_river05.jpg              	1	2	1	mn_river05.jpg       	movNat   	3	river     	29	river05     	294	not_alive	0	moves	1	natural 	1	n	0	0    	 	0.0	0	115.1425853	115.24255759999998	0.09997230000000001
126789	100	138	stimuli\nonmovNat\cliff\nmn_cliff05.jpg          	1	2	1	nmn_cliff05.jpg      	nonmovNat	5	cliff     	7	cliff05     	74	not_alive	0	still	0	natural 	1	n	0	1    	f	0.39202729999999997	1	115.2926833	115.392554	0.0998706999999999
126939	100	139	stimuli\plant2\fern\plant_fern08.jpg             	1	2	1	plant_fern08.jpg     	plant2   	7	fern      	14	fern08      	147	alive    	1	still	0	natural 	1	n	0	0    	 	0.0	0	115.44263459999999	115.542553	0.0999183999999999
127089	100	140	stimuli\plant2\palmtree\plant_palmtree03.jpg     	1	2	1	plant_palmtree03.jpg 	plant2   	7	palmtree  	27	palmtree03  	272	alive    	1	still	0	natural 	1	n	0	0    	 	0.0	0	115.5926297	115.6925416	0.0999119
127239	100	141	stimuli\animals\eagle\animal_eagle10.jpg         	1	2	1	animal_eagle10.jpg   	animals  	0	eagle     	13	eagle10     	139	alive    	1	moves	1	natural 	1	n	0	0    	 	0.0	0	115.74263640000001	115.842545	0.0999086
127389	100	142	stimuli\animals2\whale\animal_whale01.jpg        	1	2	1	animal_whale01.jpg   	animals2 	1	whale     	39	whale01     	390	alive    	1	moves	1	natural 	1	n	0	0    	 	0.0	0	115.89263090000001	115.992552	0.0999211
127539	100	143	stimuli\plant2\lemontree\plant_lemontree05.jpg   	1	2	1	plant_lemontree05.jpg	plant2   	7	lemontree 	22	lemontree05 	224	alive    	1	still	0	natural 	1	n	0	0    	 	0.0	0	116.0426249	116.1425425	0.09991760000000001
127689	100	144	stimuli\animals\cat\animal_cat03.jpg             	1	2	1	animal_cat03.jpg     	animals  	0	cat       	6	cat03       	62	alive    	1	moves	1	natural 	1	n	0	0    	 	0.0	0	116.19263490000002	116.29255309999999	0.0999182
127839	100	145	stimuli\animals2\pigeon\animal_pigeon01.jpg      	1	2	1	animal_pigeon01.jpg  	animals2 	1	pigeon    	28	pigeon01    	280	alive    	1	moves	1	natural 	1	n	0	0    	 	0.0	0	116.34263529999998	116.44254309999998	0.0999077999999999
127989	100	146	stimuli\movNat\waves\mn_waves01.jpg              	1	2	1	mn_waves01.jpg       	movNat   	3	waves     	38	waves01     	380	not_alive	0	moves	1	natural 	1	n	1	0    	 	0.0	0	116.4926335	116.59253600000001	0.0999024999999999
128139	100	147	stimuli\nonmovArt\mug\nma_mug03.jpg              	1	2	1	nma_mug03.jpg        	nonmovArt	4	mug       	26	mug03       	262	not_alive	0	still	0	artefact	0	n	0	0    	 	0.0	0	116.6426162	116.74255670000001	0.0999405
128289	100	148	stimuli\nonmovArt\mug\nma_mug07.jpg              	1	2	1	nma_mug07.jpg        	nonmovArt	4	mug       	26	mug07       	266	not_alive	0	still	0	artefact	0	n	0	1    	f	0.391982	1	116.79262549999999	116.8926067	0.0999812
128439	100	149	stimuli\nonmovArt\lock\nma_lock01.jpg            	1	2	1	nma_lock01.jpg       	nonmovArt	4	lock      	24	lock01      	240	not_alive	0	still	0	artefact	0	n	0	0    	 	0.0	0	116.9428053	117.04252109999999	0.09971580000000001
128589	100	150	stimuli\animals2\lemur\animal_lemur08.jpg        	1	2	1	animal_lemur08.jpg   	animals2 	1	lemur     	23	lemur08     	237	alive    	1	moves	1	natural 	1	n	0	0    	 	0.0	0	117.09263349999999	117.19254550000001	0.099912
128739	100	151	stimuli\movArt\helicopter\ma_helicopter04.jpg    	1	2	1	ma_helicopter04.jpg  	movArt   	2	helicopter	19	helicopter04	193	not_alive	0	moves	1	artefact	0	n	0	0    	 	0.0	0	117.2426156	117.34253559999999	0.09992000000000001
128889	100	152	stimuli\movNat\fire\mn_fire03.jpg                	1	2	1	mn_fire03.jpg        	movNat   	3	fire      	15	fire03      	152	not_alive	0	moves	1	natural 	1	n	0	0    	 	0.0	0	117.3926142	117.4925379	0.0999236999999999
129039	100	153	stimuli\nonmovArt\headphones\nma_headphones08.jpg	1	2	1	nma_headphones08.jpg 	nonmovArt	4	headphones	18	headphones08	187	not_alive	0	still	0	artefact	0	n	0	0    	 	0.0	0	117.54261890000001	117.64251750000001	0.0998986
129189	100	154	stimuli\plant\grass\plant_grass05.jpg            	1	2	1	plant_grass05.jpg    	plant    	6	grass     	17	grass05     	174	alive    	1	still	0	natural 	1	n	0	0    	 	0.0	0	117.69262069999999	117.79252609999999	0.0999053999999999
129339	100	155	stimuli\plant\tree\plant_tree09.jpg              	1	2	1	plant_tree09.jpg     	plant    	6	tree      	35	tree09      	358	alive    	1	still	0	natural 	1	n	0	0    	 	0.0	0	117.8425868	117.94253970000001	0.0999529
129489	100	156	stimuli\animals\dog\animal_dog03.jpg             	1	2	1	animal_dog03.jpg     	animals  	0	dog       	11	dog03       	112	alive    	1	moves	1	natural 	1	n	0	0    	 	0.0	0	117.9926102	118.09251359999999	0.0999034
129639	100	157	stimuli\movNat\river\mn_river07.jpg              	1	2	1	mn_river07.jpg       	movNat   	3	river     	29	river07     	296	not_alive	0	moves	1	natural 	1	n	0	0    	 	0.0	0	118.1426011	118.2424965	0.0998954
129789	100	158	stimuli\plant2\clover\plant_clover03.jpg         	1	2	1	plant_clover03.jpg   	plant2   	7	clover    	9	clover03    	92	alive    	1	still	0	natural 	1	n	0	0    	 	0.0	0	118.29260259999998	118.39253799999999	0.0999354
129939	100	159	stimuli\plant\tree\plant_tree04.jpg              	1	2	1	plant_tree04.jpg     	plant    	6	tree      	35	tree04      	353	alive    	1	still	0	natural 	1	n	0	0    	 	0.0	0	118.44259790000001	118.5425308	0.0999328999999999
132989	100	160	stimuli\animals\dolphin\animal_dolphin06.jpg     	1	3	1	animal_dolphin06.jpg 	animals  	0	dolphin   	12	dolphin06   	125	alive    	1	moves	1	natural 	1	n	0	0    	 	0.0	0	121.4925931	121.59248090000001	0.0998878
133139	100	161	stimuli\nonmovArt\mug\nma_mug09.jpg              	1	3	1	nma_mug09.jpg        	nonmovArt	4	mug       	26	mug09       	268	not_alive	0	still	0	artefact	0	n	0	0    	 	0.0	0	121.6425658	121.7424644	0.0998986
133289	100	162	stimuli\nonmovArt\clothespeg\nma_clothespeg03.jpg	1	3	1	nma_clothespeg03.jpg 	nonmovArt	4	clothespeg	8	clothespeg03	82	not_alive	0	still	0	artefact	0	n	0	0    	 	0.0	0	121.79248270000001	121.89250020000001	0.1000175
133439	100	163	stimuli\nonmovArt\clothespeg\nma_clothespeg06.jpg	1	3	1	nma_clothespeg06.jpg 	nonmovArt	4	clothespeg	8	clothespeg06	85	not_alive	0	still	0	artefact	0	n	0	0    	 	0.0	0	121.9425861	122.04251699999999	0.0999309
133589	100	164	stimuli\nonmovNat\shell\nmn_shell09.jpg          	1	3	1	nmn_shell09.jpg      	nonmovNat	5	shell     	32	shell09     	328	not_alive	0	still	0	natural 	1	n	0	0    	 	0.0	0	122.09260049999999	122.19249860000001	0.09989810000000002
133739	100	165	stimuli\nonmovArt\bench\nma_bench08.jpg          	1	3	1	nma_bench08.jpg      	nonmovArt	4	bench     	1	bench08     	17	not_alive	0	still	0	artefact	0	n	0	0    	 	0.0	0	122.24259009999999	122.3425197	0.09992960000000001
133889	100	166	stimuli\nonmovNat\crystal\nmn_crystal06.jpg      	1	3	1	nmn_crystal06.jpg    	nonmovNat	5	crystal   	10	crystal06   	105	not_alive	0	still	0	natural 	1	n	0	0    	 	0.0	0	122.39259070000001	122.49247949999999	0.0998888
134039	100	167	stimuli\plant2\moss\plant_moss09.jpg             	1	3	1	plant_moss09.jpg     	plant2   	7	moss      	25	moss09      	258	alive    	1	still	0	natural 	1	n	0	0    	 	0.0	0	122.54259270000001	122.64248149999999	0.0998888
134189	100	168	stimuli\nonmovNat\shell\nmn_shell01.jpg          	1	3	1	nmn_shell01.jpg      	nonmovNat	5	shell     	32	shell01     	320	not_alive	0	still	0	natural 	1	n	0	0    	 	0.0	0	122.6926038	122.79248740000001	0.0998836
134339	100	169	stimuli\nonmovArt\bench\nma_bench09.jpg          	1	3	1	nma_bench09.jpg      	nonmovArt	4	bench     	1	bench09     	18	not_alive	0	still	0	artefact	0	n	0	0    	 	0.0	0	122.8425697	122.9425135	0.0999438
134489	100	170	stimuli\animals\dolphin\animal_dolphin01.jpg     	1	3	1	animal_dolphin01.jpg 	animals  	0	dolphin   	12	dolphin01   	120	alive    	1	moves	1	natural 	1	n	0	0    	 	0.0	0	122.9925713	123.09247890000002	0.0999076
134639	100	171	stimuli\movNat\waterfall\mn_waterfall01.jpg      	1	3	1	mn_waterfall01.jpg   	movNat   	3	waterfall 	37	waterfall01 	370	not_alive	0	moves	1	natural 	1	n	0	0    	 	0.0	0	123.1427568	123.2425743	0.0998174999999999
134789	100	172	stimuli\movNat\hotspring\mn_hotspring07.jpg      	1	3	1	mn_hotspring07.jpg   	movNat   	3	hotspring 	21	hotspring07 	216	not_alive	0	moves	1	natural 	1	n	0	0    	 	0.0	0	123.2926442	123.3924736	0.0998294
134939	100	173	stimuli\nonmovArt\lock\nma_lock03.jpg            	1	3	1	nma_lock03.jpg       	nonmovArt	4	lock      	24	lock03      	242	not_alive	0	still	0	artefact	0	n	0	0    	 	0.0	0	123.44255349999999	123.54248510000001	0.09993160000000001
135089	100	174	stimuli\movArt\helicopter\ma_helicopter10.jpg    	1	3	1	ma_helicopter10.jpg  	movArt   	2	helicopter	19	helicopter10	199	not_alive	0	moves	1	artefact	0	n	0	0    	 	0.0	0	123.59255990000001	123.69247800000001	0.09991810000000001
135239	100	175	stimuli\movArt\car\ma_car05.jpg                  	1	3	1	ma_car05.jpg         	movArt   	2	car       	5	car05       	54	not_alive	0	moves	1	artefact	0	n	0	0    	 	0.0	0	123.74256559999999	123.8424912	0.0999256
135389	100	176	stimuli\plant\grass\plant_grass04.jpg            	1	3	1	plant_grass04.jpg    	plant    	6	grass     	17	grass04     	173	alive    	1	still	0	natural 	1	n	0	0    	 	0.0	0	123.8925493	123.9924767	0.0999273999999999
135539	100	177	stimuli\movArt\train\ma_train09.jpg              	1	3	1	ma_train09.jpg       	movArt   	2	train     	34	train09     	348	not_alive	0	moves	1	artefact	0	n	0	0    	 	0.0	0	124.0425693	124.14246740000002	0.09989810000000002
135689	100	178	stimuli\movNat\hotspring\mn_hotspring03.jpg      	1	3	1	mn_hotspring03.jpg   	movNat   	3	hotspring 	21	hotspring03 	212	not_alive	0	moves	1	natural 	1	n	0	0    	 	0.0	0	124.1925672	124.2924858	0.09991860000000001
135839	100	179	stimuli\nonmovNat\sand\nmn_sand09.jpg            	1	3	1	nmn_sand09.jpg       	nonmovNat	5	sand      	31	sand09      	318	not_alive	0	still	0	natural 	1	n	0	0    	 	0.0	0	124.342554	124.4424926	0.0999386
135989	100	180	stimuli\animals2\tiger\animal_tiger04.jpg        	1	3	1	animal_tiger04.jpg   	animals2 	1	tiger     	33	tiger04     	333	alive    	1	moves	1	natural 	1	n	0	0    	 	0.0	0	124.4925669	124.59248909999998	0.0999222
136139	100	181	stimuli\movArt\helicopter\ma_helicopter10.jpg    	1	3	1	ma_helicopter10.jpg  	movArt   	2	helicopter	19	helicopter10	199	not_alive	0	moves	1	artefact	0	n	0	0    	 	0.0	0	124.642577	124.74245559999999	0.09987860000000001
136289	100	182	stimuli\movNat\hotspring\mn_hotspring09.jpg      	1	3	1	mn_hotspring09.jpg   	movNat   	3	hotspring 	21	hotspring09 	218	not_alive	0	moves	1	natural 	1	n	0	0    	 	0.0	0	124.7925328	124.8924114	0.09987860000000001
136439	100	183	stimuli\movArt\car\ma_car06.jpg                  	1	3	1	ma_car06.jpg         	movArt   	2	car       	5	car06       	55	not_alive	0	moves	1	artefact	0	n	0	0    	 	0.0	0	124.94262590000001	125.0424716	0.0998457
136589	100	184	stimuli\animals\horse\animal_horse01.jpg         	1	3	1	animal_horse01.jpg   	animals  	0	horse     	20	horse01     	200	alive    	1	moves	1	natural 	1	n	0	0    	 	0.0	0	125.09254320000001	125.1924471	0.0999039
136739	100	185	stimuli\animals2\lemur\animal_lemur04.jpg        	1	3	1	animal_lemur04.jpg   	animals2 	1	lemur     	23	lemur04     	233	alive    	1	moves	1	natural 	1	n	0	0    	 	0.0	0	125.24253449999999	125.342472	0.0999375
136889	100	186	stimuli\animals2\pigeon\animal_pigeon06.jpg      	1	3	1	animal_pigeon06.jpg  	animals2 	1	pigeon    	28	pigeon06    	285	alive    	1	moves	1	natural 	1	n	0	0    	 	0.0	0	125.3925399	125.49245990000001	0.09992000000000001
137039	100	187	stimuli\plant\flower\plant_flower05.jpg          	1	3	1	plant_flower05.jpg   	plant    	6	flower    	16	flower05    	164	alive    	1	still	0	natural 	1	n	0	0    	 	0.0	0	125.5425675	125.64245109999999	0.0998836
137189	100	188	stimuli\animals\dog\animal_dog09.jpg             	1	3	1	animal_dog09.jpg     	animals  	0	dog       	11	dog09       	118	alive    	1	moves	1	natural 	1	n	0	0    	 	0.0	0	125.6925345	125.7916587	0.0991242
137338	100	189	stimuli\plant\vine\plant_vine03.jpg              	1	3	1	plant_vine03.jpg     	plant    	6	vine      	36	vine03      	362	alive    	1	still	0	natural 	1	n	0	0    	 	0.0	0	125.84167350000001	125.94166090000002	0.0999873999999999
137488	100	190	stimuli\plant2\moss\plant_moss02.jpg             	1	3	1	plant_moss02.jpg     	plant2   	7	moss      	25	moss02      	251	alive    	1	still	0	natural 	1	n	0	0    	 	0.0	0	125.9916696	126.09166270000001	0.0999931
137638	100	191	stimuli\movArt\boat\ma_boat09.jpg                	1	3	1	ma_boat09.jpg        	movArt   	2	boat      	2	boat09      	28	not_alive	0	moves	1	artefact	0	n	0	0    	 	0.0	0	126.1416688	126.24166000000001	0.0999911999999999
137788	100	192	stimuli\plant\cactus\plant_cactus09.jpg          	1	3	1	plant_cactus09.jpg   	plant    	6	cactus    	4	cactus09    	48	alive    	1	still	0	natural 	1	n	0	0    	 	0.0	0	126.29166969999999	126.3916596	0.0999898999999999
137938	100	193	stimuli\plant\cactus\plant_cactus04.jpg          	1	3	1	plant_cactus04.jpg   	plant    	6	cactus    	4	cactus04    	43	alive    	1	still	0	natural 	1	n	0	0    	 	0.0	0	126.44166809999999	126.541652	0.0999839
138088	100	194	stimuli\nonmovNat\cliff\nmn_cliff08.jpg          	1	3	1	nmn_cliff08.jpg      	nonmovNat	5	cliff     	7	cliff08     	77	not_alive	0	still	0	natural 	1	n	1	0    	 	0.0	0	126.5916614	126.6916803	0.1000189
138238	100	195	stimuli\plant2\fern\plant_fern03.jpg             	1	3	1	plant_fern03.jpg     	plant2   	7	fern      	14	fern03      	142	alive    	1	still	0	natural 	1	n	0	0    	 	0.0	0	126.7416791	126.8416525	0.0999733999999999
138388	100	196	stimuli\movNat\waterfall\mn_waterfall09.jpg      	1	3	1	mn_waterfall09.jpg   	movNat   	3	waterfall 	37	waterfall09 	378	not_alive	0	moves	1	natural 	1	n	0	1    	f	0.3919841	1	126.891658	126.991646	0.099988
138538	100	197	stimuli\animals2\whale\animal_whale05.jpg        	1	3	1	animal_whale05.jpg   	animals2 	1	whale     	39	whale05     	394	alive    	1	moves	1	natural 	1	n	0	0    	 	0.0	0	127.0416558	127.1416508	0.099995
138688	100	198	stimuli\movArt\boat\ma_boat07.jpg                	1	3	1	ma_boat07.jpg        	movArt   	2	boat      	2	boat07      	26	not_alive	0	moves	1	artefact	0	n	0	0    	 	0.0	0	127.19165659999999	127.2916473	0.0999906999999999
138838	100	199	stimuli\animals2\bee\animal_bee08.jpg            	1	3	1	animal_bee08.jpg     	animals2 	1	bee       	0	bee08       	7	alive    	1	moves	1	natural 	1	n	1	0    	 	0.0	0	127.3416554	127.44164750000002	0.0999921
138988	100	200	stimuli\nonmovArt\clothespeg\nma_clothespeg03.jpg	1	3	1	nma_clothespeg03.jpg 	nonmovArt	4	clothespeg	8	clothespeg03	82	not_alive	0	still	0	artefact	0	n	0	0    	 	0.0	0	127.49165420000001	127.5916385	0.09998430000000001
139138	100	201	stimuli\animals2\whale\animal_whale05.jpg        	1	3	1	animal_whale05.jpg   	animals2 	1	whale     	39	whale05     	394	alive    	1	moves	1	natural 	1	n	0	0    	 	0.0	0	127.64165559999999	127.74164180000001	0.0999862
139288	100	202	stimuli\plant\vine\plant_vine07.jpg              	1	3	1	plant_vine07.jpg     	plant    	6	vine      	36	vine07      	366	alive    	1	still	0	natural 	1	n	0	1    	f	0.5527938	1	127.79165220000002	127.8916422	0.09999
139438	100	203	stimuli\nonmovNat\rock\nmn_rock04.jpg            	1	3	1	nmn_rock04.jpg       	nonmovNat	5	rock      	30	rock04      	303	not_alive	0	still	0	natural 	1	n	0	0    	 	0.0	0	127.9416639	128.0416523	0.0999883999999999
139588	100	204	stimuli\movNat\fire\mn_fire03.jpg                	1	3	1	mn_fire03.jpg        	movNat   	3	fire      	15	fire03      	152	not_alive	0	moves	1	natural 	1	n	0	0    	 	0.0	0	128.0916601	128.1916463	0.0999862
139738	100	205	stimuli\movNat\waves\mn_waves01.jpg              	1	3	1	mn_waves01.jpg       	movNat   	3	waves     	38	waves01     	380	not_alive	0	moves	1	natural 	1	n	0	0    	 	0.0	0	128.24165630000002	128.3416461	0.0999898
139888	100	206	stimuli\animals\cat\animal_cat08.jpg             	1	3	1	animal_cat08.jpg     	animals  	0	cat       	6	cat08       	67	alive    	1	moves	1	natural 	1	n	1	0    	 	0.0	0	128.39165630000002	128.4916736	0.1000173
140038	100	207	stimuli\movArt\bus\ma_bus07.jpg                  	1	3	1	ma_bus07.jpg         	movArt   	2	bus       	3	bus07       	36	not_alive	0	moves	1	artefact	0	n	0	0    	 	0.0	0	128.54165220000002	128.6416409	0.0999887
140188	100	208	stimuli\nonmovArt\headphones\nma_headphones06.jpg	1	3	1	nma_headphones06.jpg 	nonmovArt	4	headphones	18	headphones06	185	not_alive	0	still	0	artefact	0	n	0	0    	 	0.0	0	128.69165139999998	128.7916409	0.0999895
140338	100	209	stimuli\nonmovNat\rock\nmn_rock07.jpg            	1	3	1	nmn_rock07.jpg       	nonmovNat	5	rock      	30	rock07      	306	not_alive	0	still	0	natural 	1	n	0	1    	f	0.44211049999999996	1	128.8416488	128.9416426	0.0999938
140488	100	210	stimuli\plant2\clover\plant_clover10.jpg         	1	3	1	plant_clover10.jpg   	plant2   	7	clover    	9	clover10    	99	alive    	1	still	0	natural 	1	n	0	0    	 	0.0	0	128.9916499	129.0916374	0.0999875
140638	100	211	stimuli\plant2\lemontree\plant_lemontree05.jpg   	1	3	1	plant_lemontree05.jpg	plant2   	7	lemontree 	22	lemontree05 	224	alive    	1	still	0	natural 	1	n	1	0    	 	0.0	0	129.1416461	129.2416346	0.0999885
140788	100	212	stimuli\movNat\fire\mn_fire07.jpg                	1	3	1	mn_fire07.jpg        	movNat   	3	fire      	15	fire07      	156	not_alive	0	moves	1	natural 	1	n	0	0    	 	0.0	0	129.29164450000002	129.39163359999998	0.09998910000000001
140938	100	213	stimuli\plant2\clover\plant_clover03.jpg         	1	3	1	plant_clover03.jpg   	plant2   	7	clover    	9	clover03    	92	alive    	1	still	0	natural 	1	n	0	0    	 	0.0	0	129.44164270000002	129.54163359999998	0.0999909
141088	100	214	stimuli\animals2\tiger\animal_tiger03.jpg        	1	3	1	animal_tiger03.jpg   	animals2 	1	tiger     	33	tiger03     	332	alive    	1	moves	1	natural 	1	n	0	1    	f	0.442141	1	129.591643	129.6916186	0.09997560000000001
141238	100	215	stimuli\movNat\river\mn_river02.jpg              	1	3	1	mn_river02.jpg       	movNat   	3	river     	29	river02     	291	not_alive	0	moves	1	natural 	1	n	0	0    	 	0.0	0	129.74162520000002	129.8416177	0.0999925
141388	100	216	stimuli\plant\vine\plant_vine04.jpg              	1	3	1	plant_vine04.jpg     	plant    	6	vine      	36	vine04      	363	alive    	1	still	0	natural 	1	n	0	0    	 	0.0	0	129.8916248	129.9916136	0.0999888
141538	100	217	stimuli\animals\horse\animal_horse02.jpg         	1	3	1	animal_horse02.jpg   	animals  	0	horse     	20	horse02     	201	alive    	1	moves	1	natural 	1	n	0	0    	 	0.0	0	130.0416245	130.1416124	0.0999878999999999
141688	100	218	stimuli\plant2\moss\plant_moss08.jpg             	1	3	1	plant_moss08.jpg     	plant2   	7	moss      	25	moss08      	257	alive    	1	still	0	natural 	1	n	0	0    	 	0.0	0	130.191624	130.2916119	0.0999878999999999
141838	100	219	stimuli\nonmovNat\cliff\nmn_cliff06.jpg          	1	3	1	nmn_cliff06.jpg      	nonmovNat	5	cliff     	7	cliff06     	75	not_alive	0	still	0	natural 	1	n	0	0    	 	0.0	0	130.34162220000002	130.44161019999999	0.099988
141988	100	220	stimuli\plant2\lemontree\plant_lemontree07.jpg   	1	3	1	plant_lemontree07.jpg	plant2   	7	lemontree 	22	lemontree07 	226	alive    	1	still	0	natural 	1	n	0	0    	 	0.0	0	130.49161809999998	130.5916057	0.09998760000000001
142138	100	221	stimuli\animals2\tiger\animal_tiger05.jpg        	1	3	1	animal_tiger05.jpg   	animals2 	1	tiger     	33	tiger05     	334	alive    	1	moves	1	natural 	1	n	0	0    	 	0.0	0	130.6416171	130.7416054	0.0999883
142288	100	222	stimuli\nonmovNat\sand\nmn_sand09.jpg            	1	3	1	nmn_sand09.jpg       	nonmovNat	5	sand      	31	sand09      	318	not_alive	0	still	0	natural 	1	n	0	0    	 	0.0	0	130.7916156	130.8916043	0.0999887
142438	100	223	stimuli\plant\cactus\plant_cactus09.jpg          	1	3	1	plant_cactus09.jpg   	plant    	6	cactus    	4	cactus09    	48	alive    	1	still	0	natural 	1	n	0	0    	 	0.0	0	130.9416162	131.041603	0.0999868
142588	100	224	stimuli\nonmovArt\lock\nma_lock03.jpg            	1	3	1	nma_lock03.jpg       	nonmovArt	4	lock      	24	lock03      	242	not_alive	0	still	0	artefact	0	n	0	0    	 	0.0	0	131.091614	131.1916004	0.0999863999999999
142738	100	225	stimuli\nonmovNat\shell\nmn_shell09.jpg          	1	3	1	nmn_shell09.jpg      	nonmovNat	5	shell     	32	shell09     	328	not_alive	0	still	0	natural 	1	n	0	0    	 	0.0	0	131.2416114	131.3416085	0.0999971
142888	100	226	stimuli\movArt\train\ma_train09.jpg              	1	3	1	ma_train09.jpg       	movArt   	2	train     	34	train09     	348	not_alive	0	moves	1	artefact	0	n	0	0    	 	0.0	0	131.39161000000001	131.4916001	0.09999010000000001
143038	100	227	stimuli\nonmovNat\crystal\nmn_crystal08.jpg      	1	3	1	nmn_crystal08.jpg    	nonmovNat	5	crystal   	10	crystal08   	107	not_alive	0	still	0	natural 	1	n	0	0    	 	0.0	0	131.5416063	131.64159579999998	0.0999895
143188	100	228	stimuli\plant2\palmtree\plant_palmtree02.jpg     	1	3	1	plant_palmtree02.jpg 	plant2   	7	palmtree  	27	palmtree02  	271	alive    	1	still	0	natural 	1	n	0	0    	 	0.0	0	131.691604	131.7915965	0.0999925
143338	100	229	stimuli\animals\dog\animal_dog02.jpg             	1	3	1	animal_dog02.jpg     	animals  	0	dog       	11	dog02       	111	alive    	1	moves	1	natural 	1	n	0	0    	 	0.0	0	131.8416045	131.9415923	0.0999878
143488	100	230	stimuli\movArt\bus\ma_bus02.jpg                  	1	3	1	ma_bus02.jpg         	movArt   	2	bus       	3	bus02       	31	not_alive	0	moves	1	artefact	0	n	0	0    	 	0.0	0	131.9916008	132.0915898	0.099989
143638	100	231	stimuli\plant2\fern\plant_fern07.jpg             	1	3	1	plant_fern07.jpg     	plant2   	7	fern      	14	fern07      	146	alive    	1	still	0	natural 	1	n	0	0    	 	0.0	0	132.14159990000002	132.2415899	0.09999
143788	100	232	stimuli\animals\eagle\animal_eagle01.jpg         	1	3	1	animal_eagle01.jpg   	animals  	0	eagle     	13	eagle01     	130	alive    	1	moves	1	natural 	1	n	0	0    	 	0.0	0	132.2915987	132.3915864	0.0999877
143938	100	233	stimuli\animals2\bee\animal_bee02.jpg            	1	3	1	animal_bee02.jpg     	animals2 	1	bee       	0	bee02       	1	alive    	1	moves	1	natural 	1	n	0	0    	 	0.0	0	132.44160060000002	132.5415834	0.0999828
144088	100	234	stimuli\animals2\pigeon\animal_pigeon02.jpg      	1	3	1	animal_pigeon02.jpg  	animals2 	1	pigeon    	28	pigeon02    	281	alive    	1	moves	1	natural 	1	n	0	0    	 	0.0	0	132.5915955	132.69158570000002	0.0999901999999999
144238	100	235	stimuli\movArt\boat\ma_boat08.jpg                	1	3	1	ma_boat08.jpg        	movArt   	2	boat      	2	boat08      	27	not_alive	0	moves	1	artefact	0	n	0	0    	 	0.0	0	132.7415933	132.84158440000002	0.0999911
144388	100	236	stimuli\nonmovNat\sand\nmn_sand10.jpg            	1	3	1	nmn_sand10.jpg       	nonmovNat	5	sand      	31	sand10      	319	not_alive	0	still	0	natural 	1	n	0	0    	 	0.0	0	132.8915922	132.9915814	0.0999892
144538	100	237	stimuli\movNat\waves\mn_waves05.jpg              	1	3	1	mn_waves05.jpg       	movNat   	3	waves     	38	waves05     	384	not_alive	0	moves	1	natural 	1	n	0	0    	 	0.0	0	133.0415893	133.1415807	0.0999914
144688	100	238	stimuli\movArt\bus\ma_bus03.jpg                  	1	3	1	ma_bus03.jpg         	movArt   	2	bus       	3	bus03       	32	not_alive	0	moves	1	artefact	0	n	0	0    	 	0.0	0	133.1915894	133.29158059999997	0.0999911999999999
144838	100	239	stimuli\nonmovArt\bench\nma_bench01.jpg          	1	3	1	nma_bench01.jpg      	nonmovArt	4	bench     	1	bench01     	10	not_alive	0	still	0	artefact	0	n	0	0    	 	0.0	0	133.3415872	133.441579	0.0999918
147272	100	240	stimuli\nonmovNat\rock\nmn_rock06.jpg            	1	4	1	nmn_rock06.jpg       	nonmovNat	5	rock      	30	rock06      	305	not_alive	0	still	0	natural 	1	n	0	0    	 	0.0	0	135.7749116	135.8748992	0.09998760000000001
147422	100	241	stimuli\plant2\clover\plant_clover02.jpg         	1	4	1	plant_clover02.jpg   	plant2   	7	clover    	9	clover02    	91	alive    	1	still	0	natural 	1	n	0	0    	 	0.0	0	135.9249106	136.0248967	0.09998610000000001
147572	100	242	stimuli\movArt\boat\ma_boat09.jpg                	1	4	1	ma_boat09.jpg        	movArt   	2	boat      	2	boat09      	28	not_alive	0	moves	1	artefact	0	n	0	0    	 	0.0	0	136.0749068	136.17489419999998	0.0999873999999999
147722	100	243	stimuli\plant\grass\plant_grass02.jpg            	1	4	1	plant_grass02.jpg    	plant    	6	grass     	17	grass02     	171	alive    	1	still	0	natural 	1	n	0	0    	 	0.0	0	136.2248998	136.32489180000002	0.099992
147872	100	244	stimuli\plant2\fern\plant_fern01.jpg             	1	4	1	plant_fern01.jpg     	plant2   	7	fern      	14	fern01      	140	alive    	1	still	0	natural 	1	n	0	0    	 	0.0	0	136.3748996	136.47488930000003	0.0999896999999999
148022	100	245	stimuli\animals\cat\animal_cat07.jpg             	1	4	1	animal_cat07.jpg     	animals  	0	cat       	6	cat07       	66	alive    	1	moves	1	natural 	1	n	0	0    	 	0.0	0	136.5248996	136.62489169999998	0.0999921
148172	100	246	stimuli\animals2\lemur\animal_lemur02.jpg        	1	4	1	animal_lemur02.jpg   	animals2 	1	lemur     	23	lemur02     	231	alive    	1	moves	1	natural 	1	n	0	0    	 	0.0	0	136.67489650000002	136.7748886	0.0999921
148322	100	247	stimuli\plant\cactus\plant_cactus06.jpg          	1	4	1	plant_cactus06.jpg   	plant    	6	cactus    	4	cactus06    	45	alive    	1	still	0	natural 	1	n	0	0    	 	0.0	0	136.8248986	136.92488600000001	0.0999873999999999
148472	100	248	stimuli\nonmovArt\headphones\nma_headphones02.jpg	1	4	1	nma_headphones02.jpg 	nonmovArt	4	headphones	18	headphones02	181	not_alive	0	still	0	artefact	0	n	0	0    	 	0.0	0	136.97489230000002	137.0748836	0.0999913
148622	100	249	stimuli\movArt\train\ma_train10.jpg              	1	4	1	ma_train10.jpg       	movArt   	2	train     	34	train10     	349	not_alive	0	moves	1	artefact	0	n	0	0    	 	0.0	0	137.1248947	137.2248846	0.0999898999999999
148772	100	250	stimuli\animals\dolphin\animal_dolphin08.jpg     	1	4	1	animal_dolphin08.jpg 	animals  	0	dolphin   	12	dolphin08   	127	alive    	1	moves	1	natural 	1	n	0	0    	 	0.0	0	137.2748889	137.3756518	0.10076289999999999
148922	100	251	stimuli\nonmovNat\sand\nmn_sand01.jpg            	1	4	1	nmn_sand01.jpg       	nonmovNat	5	sand      	31	sand01      	310	not_alive	0	still	0	natural 	1	n	0	0    	 	0.0	0	137.4257534	137.5256428	0.0998893999999999
149072	100	252	stimuli\movNat\waves\mn_waves04.jpg              	1	4	1	mn_waves04.jpg       	movNat   	3	waves     	38	waves04     	383	not_alive	0	moves	1	natural 	1	n	0	0    	 	0.0	0	137.575741	137.67563090000002	0.0998898999999999
149222	100	253	stimuli\movArt\helicopter\ma_helicopter02.jpg    	1	4	1	ma_helicopter02.jpg  	movArt   	2	helicopter	19	helicopter02	191	not_alive	0	moves	1	artefact	0	n	0	0    	 	0.0	0	137.72580380000002	137.82564109999998	0.0998373
149372	100	254	stimuli\animals2\tiger\animal_tiger05.jpg        	1	4	1	animal_tiger05.jpg   	animals2 	1	tiger     	33	tiger05     	334	alive    	1	moves	1	natural 	1	n	0	0    	 	0.0	0	137.8757255	137.9756219	0.0998964
149522	100	255	stimuli\animals\eagle\animal_eagle08.jpg         	1	4	1	animal_eagle08.jpg   	animals  	0	eagle     	13	eagle08     	137	alive    	1	moves	1	natural 	1	n	1	0    	 	0.0	0	138.0257209	138.125633	0.0999121
149672	100	256	stimuli\nonmovArt\lock\nma_lock02.jpg            	1	4	1	nma_lock02.jpg       	nonmovArt	4	lock      	24	lock02      	241	not_alive	0	still	0	artefact	0	n	0	0    	 	0.0	0	138.17572140000001	138.27563759999998	0.0999162
149822	100	257	stimuli\plant\tree\plant_tree08.jpg              	1	4	1	plant_tree08.jpg     	plant    	6	tree      	35	tree08      	357	alive    	1	still	0	natural 	1	n	0	1    	f	0.3919761	1	138.3257174	138.4256352	0.0999178
149972	100	258	stimuli\movArt\helicopter\ma_helicopter10.jpg    	1	4	1	ma_helicopter10.jpg  	movArt   	2	helicopter	19	helicopter10	199	not_alive	0	moves	1	artefact	0	n	0	0    	 	0.0	0	138.4757173	138.57562969999998	0.0999123999999999
150122	100	259	stimuli\plant\cactus\plant_cactus08.jpg          	1	4	1	plant_cactus08.jpg   	plant    	6	cactus    	4	cactus08    	47	alive    	1	still	0	natural 	1	n	0	0    	 	0.0	0	138.6257214	138.7256403	0.0999188999999999
150272	100	260	stimuli\animals2\whale\animal_whale10.jpg        	1	4	1	animal_whale10.jpg   	animals2 	1	whale     	39	whale10     	399	alive    	1	moves	1	natural 	1	n	0	0    	 	0.0	0	138.7757144	138.8756376	0.0999232
150422	100	261	stimuli\movNat\waves\mn_waves02.jpg              	1	4	1	mn_waves02.jpg       	movNat   	3	waves     	38	waves02     	381	not_alive	0	moves	1	natural 	1	n	0	0    	 	0.0	0	138.9257155	139.0256438	0.0999283
150572	100	262	stimuli\nonmovArt\mug\nma_mug08.jpg              	1	4	1	nma_mug08.jpg        	nonmovArt	4	mug       	26	mug08       	267	not_alive	0	still	0	artefact	0	n	0	0    	 	0.0	0	139.0757054	139.17561750000002	0.0999121
150722	100	263	stimuli\plant\vine\plant_vine01.jpg              	1	4	1	plant_vine01.jpg     	plant    	6	vine      	36	vine01      	360	alive    	1	still	0	natural 	1	n	0	0    	 	0.0	0	139.22573380000003	139.3256143	0.0998805
150872	100	264	stimuli\plant2\clover\plant_clover09.jpg         	1	4	1	plant_clover09.jpg   	plant2   	7	clover    	9	clover09    	98	alive    	1	still	0	natural 	1	n	0	0    	 	0.0	0	139.3757088	139.4756408	0.099932
151022	100	265	stimuli\animals2\lemur\animal_lemur04.jpg        	1	4	1	animal_lemur04.jpg   	animals2 	1	lemur     	23	lemur04     	233	alive    	1	moves	1	natural 	1	n	1	0    	 	0.0	0	139.5258394	139.62583	0.09999060000000001
151172	100	266	stimuli\nonmovArt\headphones\nma_headphones01.jpg	1	4	1	nma_headphones01.jpg 	nonmovArt	4	headphones	18	headphones01	180	not_alive	0	still	0	artefact	0	n	0	0    	 	0.0	0	139.67578840000002	139.7756302	0.0998418
151322	100	267	stimuli\movArt\car\ma_car09.jpg                  	1	4	1	ma_car09.jpg         	movArt   	2	car       	5	car09       	58	not_alive	0	moves	1	artefact	0	n	0	1    	f	0.39184070000000004	1	139.82569640000003	139.9256228	0.0999263999999999
151472	100	268	stimuli\movNat\hotspring\mn_hotspring05.jpg      	1	4	1	mn_hotspring05.jpg   	movNat   	3	hotspring 	21	hotspring05 	214	not_alive	0	moves	1	natural 	1	n	0	0    	 	0.0	0	139.9757111	140.0756092	0.09989810000000002
151622	100	269	stimuli\plant2\clover\plant_clover07.jpg         	1	4	1	plant_clover07.jpg   	plant2   	7	clover    	9	clover07    	96	alive    	1	still	0	natural 	1	n	0	0    	 	0.0	0	140.1257074	140.2256176	0.0999101999999999
151772	100	270	stimuli\movNat\waterfall\mn_waterfall01.jpg      	1	4	1	mn_waterfall01.jpg   	movNat   	3	waterfall 	37	waterfall01 	370	not_alive	0	moves	1	natural 	1	n	0	0    	 	0.0	0	140.2757003	140.3756105	0.0999101999999999
151922	100	271	stimuli\plant2\lemontree\plant_lemontree02.jpg   	1	4	1	plant_lemontree02.jpg	plant2   	7	lemontree 	22	lemontree02 	221	alive    	1	still	0	natural 	1	n	0	0    	 	0.0	0	140.42569269999998	140.5256149	0.0999222
152072	100	272	stimuli\animals\dolphin\animal_dolphin10.jpg     	1	4	1	animal_dolphin10.jpg 	animals  	0	dolphin   	12	dolphin10   	129	alive    	1	moves	1	natural 	1	n	0	0    	 	0.0	0	140.5756978	140.6756128	0.099915
152222	100	273	stimuli\animals2\whale\animal_whale01.jpg        	1	4	1	animal_whale01.jpg   	animals2 	1	whale     	39	whale01     	390	alive    	1	moves	1	natural 	1	n	0	0    	 	0.0	0	140.7256838	140.8256141	0.0999303
152372	100	274	stimuli\plant\flower\plant_flower06.jpg          	1	4	1	plant_flower06.jpg   	plant    	6	flower    	16	flower06    	165	alive    	1	still	0	natural 	1	n	0	0    	 	0.0	0	140.87569150000002	140.9756091	0.09991760000000001
152522	100	275	stimuli\animals2\tiger\animal_tiger09.jpg        	1	4	1	animal_tiger09.jpg   	animals2 	1	tiger     	33	tiger09     	338	alive    	1	moves	1	natural 	1	n	0	0    	 	0.0	0	141.0257029	141.12563630000002	0.0999333999999999
152672	100	276	stimuli\nonmovNat\sand\nmn_sand04.jpg            	1	4	1	nmn_sand04.jpg       	nonmovNat	5	sand      	31	sand04      	313	not_alive	0	still	0	natural 	1	n	0	0    	 	0.0	0	141.1756866	141.2756678	0.0999812
152822	100	277	stimuli\nonmovArt\mug\nma_mug05.jpg              	1	4	1	nma_mug05.jpg        	nonmovArt	4	mug       	26	mug05       	264	not_alive	0	still	0	artefact	0	n	0	0    	 	0.0	0	141.3257707	141.42560569999998	0.09983500000000001
152972	100	278	stimuli\plant\flower\plant_flower02.jpg          	1	4	1	plant_flower02.jpg   	plant    	6	flower    	16	flower02    	161	alive    	1	still	0	natural 	1	n	0	0    	 	0.0	0	141.47569040000002	141.5756042	0.0999138
153122	100	279	stimuli\movArt\train\ma_train02.jpg              	1	4	1	ma_train02.jpg       	movArt   	2	train     	34	train02     	341	not_alive	0	moves	1	artefact	0	n	0	0    	 	0.0	0	141.6256904	141.7256216	0.0999312
153272	100	280	stimuli\animals\eagle\animal_eagle06.jpg         	1	4	1	animal_eagle06.jpg   	animals  	0	eagle     	13	eagle06     	135	alive    	1	moves	1	natural 	1	n	0	0    	 	0.0	0	141.77568359999998	141.8755769	0.0998933
153422	100	281	stimuli\animals\cat\animal_cat09.jpg             	1	4	1	animal_cat09.jpg     	animals  	0	cat       	6	cat09       	68	alive    	1	moves	1	natural 	1	n	0	0    	 	0.0	0	141.92568300000002	142.0256076	0.09992460000000002
153572	100	282	stimuli\animals2\bee\animal_bee03.jpg            	1	4	1	animal_bee03.jpg     	animals2 	1	bee       	0	bee03       	2	alive    	1	moves	1	natural 	1	n	0	0    	 	0.0	0	142.0756725	142.17559409999998	0.0999216
153722	100	283	stimuli\animals2\lemur\animal_lemur01.jpg        	1	4	1	animal_lemur01.jpg   	animals2 	1	lemur     	23	lemur01     	230	alive    	1	moves	1	natural 	1	n	0	0    	 	0.0	0	142.2256729	142.3255929	0.09992000000000001
153872	100	284	stimuli\movArt\car\ma_car08.jpg                  	1	4	1	ma_car08.jpg         	movArt   	2	car       	5	car08       	57	not_alive	0	moves	1	artefact	0	n	0	0    	 	0.0	0	142.3756813	142.47558899999999	0.0999077
154022	100	285	stimuli\nonmovArt\bench\nma_bench04.jpg          	1	4	1	nma_bench04.jpg      	nonmovArt	4	bench     	1	bench04     	13	not_alive	0	still	0	artefact	0	n	0	0    	 	0.0	0	142.52568480000002	142.625589	0.0999042
154172	100	286	stimuli\animals2\bee\animal_bee04.jpg            	1	4	1	animal_bee04.jpg     	animals2 	1	bee       	0	bee04       	3	alive    	1	moves	1	natural 	1	n	0	0    	 	0.0	0	142.6756611	142.7755765	0.0999154
154322	100	287	stimuli\animals2\whale\animal_whale09.jpg        	1	4	1	animal_whale09.jpg   	animals2 	1	whale     	39	whale09     	398	alive    	1	moves	1	natural 	1	n	0	0    	 	0.0	0	142.82568909999998	142.92561469999998	0.0999256
154472	100	288	stimuli\nonmovNat\shell\nmn_shell03.jpg          	1	4	1	nmn_shell03.jpg      	nonmovNat	5	shell     	32	shell03     	322	not_alive	0	still	0	natural 	1	n	0	0    	 	0.0	0	142.97566559999999	143.0756384	0.0999728
154622	100	289	stimuli\nonmovNat\rock\nmn_rock02.jpg            	1	4	1	nmn_rock02.jpg       	nonmovNat	5	rock      	30	rock02      	301	not_alive	0	still	0	natural 	1	n	0	0    	 	0.0	0	143.12569059999998	143.2255827	0.09989210000000001
154772	100	290	stimuli\movNat\fire\mn_fire07.jpg                	1	4	1	mn_fire07.jpg        	movNat   	3	fire      	15	fire07      	156	not_alive	0	moves	1	natural 	1	n	0	0    	 	0.0	0	143.2756604	143.3755814	0.09992100000000001
154922	100	291	stimuli\animals\dog\animal_dog05.jpg             	1	4	1	animal_dog05.jpg     	animals  	0	dog       	11	dog05       	114	alive    	1	moves	1	natural 	1	n	0	0    	 	0.0	0	143.4256648	143.5255884	0.09992360000000002
155072	100	292	stimuli\movNat\hotspring\mn_hotspring02.jpg      	1	4	1	mn_hotspring02.jpg   	movNat   	3	hotspring 	21	hotspring02 	211	not_alive	0	moves	1	natural 	1	n	0	0    	 	0.0	0	143.57578069999997	143.6755614	0.0997807
155222	100	293	stimuli\movNat\river\mn_river08.jpg              	1	4	1	mn_river08.jpg       	movNat   	3	river     	29	river08     	297	not_alive	0	moves	1	natural 	1	n	0	0    	 	0.0	0	143.72565369999998	143.825548	0.0998942999999999
155372	100	294	stimuli\animals\horse\animal_horse01.jpg         	1	4	1	animal_horse01.jpg   	animals  	0	horse     	20	horse01     	200	alive    	1	moves	1	natural 	1	n	0	0    	 	0.0	0	143.8756688	143.9755686	0.09989980000000001
155522	100	295	stimuli\nonmovArt\clothespeg\nma_clothespeg04.jpg	1	4	1	nma_clothespeg04.jpg 	nonmovArt	4	clothespeg	8	clothespeg04	83	not_alive	0	still	0	artefact	0	n	0	0    	 	0.0	0	144.0256794	144.12558159999998	0.0999022
155672	100	296	stimuli\animals\horse\animal_horse06.jpg         	1	4	1	animal_horse06.jpg   	animals  	0	horse     	20	horse06     	205	alive    	1	moves	1	natural 	1	n	0	0    	 	0.0	0	144.175655	144.27555690000003	0.0999018999999999
155822	100	297	stimuli\nonmovNat\rock\nmn_rock09.jpg            	1	4	1	nmn_rock09.jpg       	nonmovNat	5	rock      	30	rock09      	308	not_alive	0	still	0	natural 	1	n	0	0    	 	0.0	0	144.3256592	144.42555269999997	0.0998935
155972	100	298	stimuli\movArt\bus\ma_bus01.jpg                  	1	4	1	ma_bus01.jpg         	movArt   	2	bus       	3	bus01       	30	not_alive	0	moves	1	artefact	0	n	0	0    	 	0.0	0	144.4756591	144.5755702	0.09991110000000002
156122	100	299	stimuli\plant2\palmtree\plant_palmtree10.jpg     	1	4	1	plant_palmtree10.jpg 	plant2   	7	palmtree  	27	palmtree10  	279	alive    	1	still	0	natural 	1	n	0	0    	 	0.0	0	144.6256466	144.72558469999998	0.0999381
156272	100	300	stimuli\nonmovArt\bench\nma_bench03.jpg          	1	4	1	nma_bench03.jpg      	nonmovArt	4	bench     	1	bench03     	12	not_alive	0	still	0	artefact	0	n	0	0    	 	0.0	0	144.7756571	144.8756852	0.10002810000000001
156422	100	301	stimuli\animals\dolphin\animal_dolphin05.jpg     	1	4	1	animal_dolphin05.jpg 	animals  	0	dolphin   	12	dolphin05   	124	alive    	1	moves	1	natural 	1	n	0	0    	 	0.0	0	144.9256481	145.02555780000003	0.0999097
156572	100	302	stimuli\nonmovNat\shell\nmn_shell05.jpg          	1	4	1	nmn_shell05.jpg      	nonmovNat	5	shell     	32	shell05     	324	not_alive	0	still	0	natural 	1	n	0	0    	 	0.0	0	145.07564519999997	145.1755618	0.09991660000000001
156722	100	303	stimuli\plant\cactus\plant_cactus05.jpg          	1	4	1	plant_cactus05.jpg   	plant    	6	cactus    	4	cactus05    	44	alive    	1	still	0	natural 	1	n	0	0    	 	0.0	0	145.2256627	145.32555459999998	0.0998918999999999
156872	100	304	stimuli\animals2\bee\animal_bee08.jpg            	1	4	1	animal_bee08.jpg     	animals2 	1	bee       	0	bee08       	7	alive    	1	moves	1	natural 	1	n	1	0    	 	0.0	0	145.3756397	145.4755227	0.099883
157022	100	305	stimuli\animals\eagle\animal_eagle09.jpg         	1	4	1	animal_eagle09.jpg   	animals  	0	eagle     	13	eagle09     	138	alive    	1	moves	1	natural 	1	n	0	0    	 	0.0	0	145.52562759999998	145.6255645	0.0999369
157172	100	306	stimuli\movArt\car\ma_car03.jpg                  	1	4	1	ma_car03.jpg         	movArt   	2	car       	5	car03       	52	not_alive	0	moves	1	artefact	0	n	0	1    	f	0.3919822	1	145.67563159999997	145.7755503	0.0999187
157322	100	307	stimuli\plant2\moss\plant_moss05.jpg             	1	4	1	plant_moss05.jpg     	plant2   	7	moss      	25	moss05      	254	alive    	1	still	0	natural 	1	n	0	0    	 	0.0	0	145.82565119999998	145.92555149999998	0.0999003
157472	100	308	stimuli\movNat\hotspring\mn_hotspring03.jpg      	1	4	1	mn_hotspring03.jpg   	movNat   	3	hotspring 	21	hotspring03 	212	not_alive	0	moves	1	natural 	1	n	0	0    	 	0.0	0	145.9756439	146.0755499	0.099906
157622	100	309	stimuli\movArt\bus\ma_bus04.jpg                  	1	4	1	ma_bus04.jpg         	movArt   	2	bus       	3	bus04       	33	not_alive	0	moves	1	artefact	0	n	0	0    	 	0.0	0	146.1256375	146.2255404	0.0999029
157772	100	310	stimuli\animals2\tiger\animal_tiger04.jpg        	1	4	1	animal_tiger04.jpg   	animals2 	1	tiger     	33	tiger04     	333	alive    	1	moves	1	natural 	1	n	0	0    	 	0.0	0	146.275625	146.37554630000002	0.0999213
157922	100	311	stimuli\movArt\boat\ma_boat03.jpg                	1	4	1	ma_boat03.jpg        	movArt   	2	boat      	2	boat03      	22	not_alive	0	moves	1	artefact	0	n	0	0    	 	0.0	0	146.4256427	146.5255553	0.0999126
158072	100	312	stimuli\nonmovNat\crystal\nmn_crystal02.jpg      	1	4	1	nmn_crystal02.jpg    	nonmovNat	5	crystal   	10	crystal02   	101	not_alive	0	still	0	natural 	1	n	0	0    	 	0.0	0	146.5756246	146.6756099	0.09998530000000001
158222	100	313	stimuli\nonmovNat\cliff\nmn_cliff01.jpg          	1	4	1	nmn_cliff01.jpg      	nonmovNat	5	cliff     	7	cliff01     	70	not_alive	0	still	0	natural 	1	n	0	0    	 	0.0	0	146.7256252	146.82550690000002	0.0998817
158372	100	314	stimuli\plant\tree\plant_tree06.jpg              	1	4	1	plant_tree06.jpg     	plant    	6	tree      	35	tree06      	355	alive    	1	still	0	natural 	1	n	0	0    	 	0.0	0	146.8756166	146.97554330000003	0.0999267
158522	100	315	stimuli\animals2\pigeon\animal_pigeon03.jpg      	1	4	1	animal_pigeon03.jpg  	animals2 	1	pigeon    	28	pigeon03    	282	alive    	1	moves	1	natural 	1	n	0	0    	 	0.0	0	147.0256101	147.12553630000002	0.0999261999999999
158672	100	316	stimuli\nonmovArt\lock\nma_lock05.jpg            	1	4	1	nma_lock05.jpg       	nonmovArt	4	lock      	24	lock05      	244	not_alive	0	still	0	artefact	0	n	0	0    	 	0.0	0	147.175623	147.2755312	0.0999082
158822	100	317	stimuli\animals2\pigeon\animal_pigeon01.jpg      	1	4	1	animal_pigeon01.jpg  	animals2 	1	pigeon    	28	pigeon01    	280	alive    	1	moves	1	natural 	1	n	0	0    	 	0.0	0	147.3256261	147.4255249	0.09989880000000001
158972	100	318	stimuli\nonmovNat\cliff\nmn_cliff02.jpg          	1	4	1	nmn_cliff02.jpg      	nonmovNat	5	cliff     	7	cliff02     	71	not_alive	0	still	0	natural 	1	n	0	0    	 	0.0	0	147.47562219999998	147.57553169999997	0.0999095
159122	100	319	stimuli\nonmovNat\crystal\nmn_crystal10.jpg      	1	4	1	nmn_crystal10.jpg    	nonmovNat	5	crystal   	10	crystal10   	109	not_alive	0	still	0	natural 	1	n	0	0    	 	0.0	0	147.62560530000002	147.72553269999997	0.0999273999999999
161022	100	320	stimuli\plant2\lemontree\plant_lemontree04.jpg   	1	5	1	plant_lemontree04.jpg	plant2   	7	lemontree 	22	lemontree04 	223	alive    	1	still	0	natural 	1	n	0	0    	 	0.0	0	149.52561369999998	149.6257095	0.10009580000000001
161172	100	321	stimuli\plant\vine\plant_vine08.jpg              	1	5	1	plant_vine08.jpg     	plant    	6	vine      	36	vine08      	367	alive    	1	still	0	natural 	1	n	0	0    	 	0.0	0	149.6756793	149.7755194	0.0998401
161322	100	322	stimuli\plant2\moss\plant_moss03.jpg             	1	5	1	plant_moss03.jpg     	plant2   	7	moss      	25	moss03      	252	alive    	1	still	0	natural 	1	n	0	0    	 	0.0	0	149.82557490000002	149.9255033	0.0999284
161472	100	323	stimuli\movNat\river\mn_river06.jpg              	1	5	1	mn_river06.jpg       	movNat   	3	river     	29	river06     	295	not_alive	0	moves	1	natural 	1	n	0	0    	 	0.0	0	149.97558940000002	150.07549840000001	0.099909
161622	100	324	stimuli\animals\dog\animal_dog10.jpg             	1	5	1	animal_dog10.jpg     	animals  	0	dog       	11	dog10       	119	alive    	1	moves	1	natural 	1	n	0	0    	 	0.0	0	150.12559919999998	150.2255102	0.099911
161772	100	325	stimuli\plant2\palmtree\plant_palmtree09.jpg     	1	5	1	plant_palmtree09.jpg 	plant2   	7	palmtree  	27	palmtree09  	278	alive    	1	still	0	natural 	1	n	0	0    	 	0.0	0	150.27559250000002	150.3755045	0.099912
161922	100	326	stimuli\movArt\train\ma_train06.jpg              	1	5	1	ma_train06.jpg       	movArt   	2	train     	34	train06     	345	not_alive	0	moves	1	artefact	0	n	0	0    	 	0.0	0	150.4255888	150.52549040000002	0.09990160000000001
162072	100	327	stimuli\movNat\waves\mn_waves06.jpg              	1	5	1	mn_waves06.jpg       	movNat   	3	waves     	38	waves06     	385	not_alive	0	moves	1	natural 	1	n	0	0    	 	0.0	0	150.575582	150.67549430000003	0.09991230000000001
162222	100	328	stimuli\nonmovArt\lock\nma_lock02.jpg            	1	5	1	nma_lock02.jpg       	nonmovArt	4	lock      	24	lock02      	241	not_alive	0	still	0	artefact	0	n	0	0    	 	0.0	0	150.725561	150.82549530000003	0.0999343
162372	100	329	stimuli\nonmovArt\bench\nma_bench02.jpg          	1	5	1	nma_bench02.jpg      	nonmovArt	4	bench     	1	bench02     	11	not_alive	0	still	0	artefact	0	n	0	0    	 	0.0	0	150.8755956	150.9754879	0.0998923
162522	100	330	stimuli\nonmovNat\sand\nmn_sand02.jpg            	1	5	1	nmn_sand02.jpg       	nonmovNat	5	sand      	31	sand02      	311	not_alive	0	still	0	natural 	1	n	0	0    	 	0.0	0	151.02558290000002	151.1254971	0.0999142
162672	100	331	stimuli\plant\flower\plant_flower07.jpg          	1	5	1	plant_flower07.jpg   	plant    	6	flower    	16	flower07    	166	alive    	1	still	0	natural 	1	n	0	0    	 	0.0	0	151.1755911	151.2754971	0.099906
162822	100	332	stimuli\movArt\boat\ma_boat03.jpg                	1	5	1	ma_boat03.jpg        	movArt   	2	boat      	2	boat03      	22	not_alive	0	moves	1	artefact	0	n	0	0    	 	0.0	0	151.3255774	151.4255608	0.0999834
162972	100	333	stimuli\movNat\fire\mn_fire02.jpg                	1	5	1	mn_fire02.jpg        	movNat   	3	fire      	15	fire02      	151	not_alive	0	moves	1	natural 	1	n	0	0    	 	0.0	0	151.4755697	151.5754844	0.0999147
163122	100	334	stimuli\movArt\helicopter\ma_helicopter06.jpg    	1	5	1	ma_helicopter06.jpg  	movArt   	2	helicopter	19	helicopter06	195	not_alive	0	moves	1	artefact	0	n	0	0    	 	0.0	0	151.6255737	151.7254811	0.0999074
163272	100	335	stimuli\plant2\moss\plant_moss03.jpg             	1	5	1	plant_moss03.jpg     	plant2   	7	moss      	25	moss03      	252	alive    	1	still	0	natural 	1	n	0	0    	 	0.0	0	151.7755763	151.87549140000002	0.0999151
163422	100	336	stimuli\animals\horse\animal_horse07.jpg         	1	5	1	animal_horse07.jpg   	animals  	0	horse     	20	horse07     	206	alive    	1	moves	1	natural 	1	n	0	0    	 	0.0	0	151.9255701	152.02548290000001	0.09991280000000001
163572	100	337	stimuli\plant\vine\plant_vine07.jpg              	1	5	1	plant_vine07.jpg     	plant    	6	vine      	36	vine07      	366	alive    	1	still	0	natural 	1	n	0	0    	 	0.0	0	152.07556359999998	152.1754786	0.099915
163722	100	338	stimuli\movArt\bus\ma_bus09.jpg                  	1	5	1	ma_bus09.jpg         	movArt   	2	bus       	3	bus09       	38	not_alive	0	moves	1	artefact	0	n	0	0    	 	0.0	0	152.22556369999998	152.32548480000003	0.0999211
163872	100	339	stimuli\plant\grass\plant_grass07.jpg            	1	5	1	plant_grass07.jpg    	plant    	6	grass     	17	grass07     	176	alive    	1	still	0	natural 	1	n	0	0    	 	0.0	0	152.375561	152.4754871	0.0999261
164022	100	340	stimuli\animals2\pigeon\animal_pigeon01.jpg      	1	5	1	animal_pigeon01.jpg  	animals2 	1	pigeon    	28	pigeon01    	280	alive    	1	moves	1	natural 	1	n	0	0    	 	0.0	0	152.52554740000002	152.6254767	0.0999293
164172	100	341	stimuli\plant2\fern\plant_fern06.jpg             	1	5	1	plant_fern06.jpg     	plant2   	7	fern      	14	fern06      	145	alive    	1	still	0	natural 	1	n	0	0    	 	0.0	0	152.6755568	152.7754649	0.0999081
164322	100	342	stimuli\movNat\fire\mn_fire10.jpg                	1	5	1	mn_fire10.jpg        	movNat   	3	fire      	15	fire10      	159	not_alive	0	moves	1	natural 	1	n	0	0    	 	0.0	0	152.82556719999997	152.925469	0.0999018
164472	100	343	stimuli\nonmovNat\cliff\nmn_cliff09.jpg          	1	5	1	nmn_cliff09.jpg      	nonmovNat	5	cliff     	7	cliff09     	78	not_alive	0	still	0	natural 	1	n	0	0    	 	0.0	0	152.975557	153.07548899999998	0.099932
164622	100	344	stimuli\plant2\fern\plant_fern01.jpg             	1	5	1	plant_fern01.jpg     	plant2   	7	fern      	14	fern01      	140	alive    	1	still	0	natural 	1	n	0	0    	 	0.0	0	153.1255655	153.22557790000002	0.10001239999999999
164772	100	345	stimuli\plant\grass\plant_grass09.jpg            	1	5	1	plant_grass09.jpg    	plant    	6	grass     	17	grass09     	178	alive    	1	still	0	natural 	1	n	0	0    	 	0.0	0	153.27555990000002	153.3754696	0.0999097
164922	100	346	stimuli\nonmovNat\crystal\nmn_crystal10.jpg      	1	5	1	nmn_crystal10.jpg    	nonmovNat	5	crystal   	10	crystal10   	109	not_alive	0	still	0	natural 	1	n	0	0    	 	0.0	0	153.4255629	153.52546040000001	0.0998975
165072	100	347	stimuli\nonmovArt\mug\nma_mug05.jpg              	1	5	1	nma_mug05.jpg        	nonmovArt	4	mug       	26	mug05       	264	not_alive	0	still	0	artefact	0	n	0	0    	 	0.0	0	153.5755531	153.67547019999998	0.09991710000000001
165222	100	348	stimuli\movNat\waterfall\mn_waterfall09.jpg      	1	5	1	mn_waterfall09.jpg   	movNat   	3	waterfall 	37	waterfall09 	378	not_alive	0	moves	1	natural 	1	n	0	0    	 	0.0	0	153.72554680000002	153.8254649	0.09991810000000001
165372	100	349	stimuli\nonmovArt\headphones\nma_headphones03.jpg	1	5	1	nma_headphones03.jpg 	nonmovArt	4	headphones	18	headphones03	182	not_alive	0	still	0	artefact	0	n	0	0    	 	0.0	0	153.8755595	153.9754616	0.09990210000000001
165522	100	350	stimuli\plant2\lemontree\plant_lemontree10.jpg   	1	5	1	plant_lemontree10.jpg	plant2   	7	lemontree 	22	lemontree10 	229	alive    	1	still	0	natural 	1	n	0	0    	 	0.0	0	154.0255491	154.12545219999998	0.09990310000000001
165672	100	351	stimuli\plant2\palmtree\plant_palmtree05.jpg     	1	5	1	plant_palmtree05.jpg 	plant2   	7	palmtree  	27	palmtree05  	274	alive    	1	still	0	natural 	1	n	0	0    	 	0.0	0	154.1755454	154.2754705	0.0999251
165822	100	352	stimuli\animals\cat\animal_cat05.jpg             	1	5	1	animal_cat05.jpg     	animals  	0	cat       	6	cat05       	64	alive    	1	moves	1	natural 	1	n	0	0    	 	0.0	0	154.325547	154.42545800000002	0.099911
165972	100	353	stimuli\movNat\river\mn_river01.jpg              	1	5	1	mn_river01.jpg       	movNat   	3	river     	29	river01     	290	not_alive	0	moves	1	natural 	1	n	0	0    	 	0.0	0	154.47554440000002	154.5754585	0.0999141
166122	100	354	stimuli\animals\dog\animal_dog05.jpg             	1	5	1	animal_dog05.jpg     	animals  	0	dog       	11	dog05       	114	alive    	1	moves	1	natural 	1	n	0	0    	 	0.0	0	154.6255416	154.7254591	0.0999174999999999
166272	100	355	stimuli\nonmovNat\shell\nmn_shell05.jpg          	1	5	1	nmn_shell05.jpg      	nonmovNat	5	shell     	32	shell05     	324	not_alive	0	still	0	natural 	1	n	0	0    	 	0.0	0	154.7755632	154.8754604	0.0998971999999999
166422	100	356	stimuli\nonmovArt\clothespeg\nma_clothespeg08.jpg	1	5	1	nma_clothespeg08.jpg 	nonmovArt	4	clothespeg	8	clothespeg08	87	not_alive	0	still	0	artefact	0	n	0	0    	 	0.0	0	154.9255385	155.0255072	0.09996870000000001
166572	100	357	stimuli\movNat\waterfall\mn_waterfall05.jpg      	1	5	1	mn_waterfall05.jpg   	movNat   	3	waterfall 	37	waterfall05 	374	not_alive	0	moves	1	natural 	1	n	0	0    	 	0.0	0	155.0755341	155.1754378	0.0999037
166722	100	358	stimuli\plant\tree\plant_tree07.jpg              	1	5	1	plant_tree07.jpg     	plant    	6	tree      	35	tree07      	356	alive    	1	still	0	natural 	1	n	0	0    	 	0.0	0	155.22553059999998	155.325438	0.0999074
166872	100	359	stimuli\nonmovArt\clothespeg\nma_clothespeg04.jpg	1	5	1	nma_clothespeg04.jpg 	nonmovArt	4	clothespeg	8	clothespeg04	83	not_alive	0	still	0	artefact	0	n	0	0    	 	0.0	0	155.37554369999998	155.47545390000002	0.0999101999999999
167022	100	360	stimuli\nonmovNat\cliff\nmn_cliff01.jpg          	1	5	1	nmn_cliff01.jpg      	nonmovNat	5	cliff     	7	cliff01     	70	not_alive	0	still	0	natural 	1	n	0	0    	 	0.0	0	155.5255326	155.6254626	0.0999299999999999
167172	100	361	stimuli\animals2\whale\animal_whale08.jpg        	1	5	1	animal_whale08.jpg   	animals2 	1	whale     	39	whale08     	397	alive    	1	moves	1	natural 	1	n	0	0    	 	0.0	0	155.6755454	155.7754405	0.0998951
167322	100	362	stimuli\animals2\whale\animal_whale03.jpg        	1	5	1	animal_whale03.jpg   	animals2 	1	whale     	39	whale03     	392	alive    	1	moves	1	natural 	1	n	0	0    	 	0.0	0	155.82552019999997	155.9254374	0.0999172
167472	100	363	stimuli\nonmovNat\crystal\nmn_crystal05.jpg      	1	5	1	nmn_crystal05.jpg    	nonmovNat	5	crystal   	10	crystal05   	104	not_alive	0	still	0	natural 	1	n	0	0    	 	0.0	0	155.9755294	156.0754498	0.0999203999999999
167622	100	364	stimuli\nonmovArt\mug\nma_mug06.jpg              	1	5	1	nma_mug06.jpg        	nonmovArt	4	mug       	26	mug06       	265	not_alive	0	still	0	artefact	0	n	0	0    	 	0.0	0	156.1255176	156.225439	0.0999214
167772	100	365	stimuli\animals\cat\animal_cat06.jpg             	1	5	1	animal_cat06.jpg     	animals  	0	cat       	6	cat06       	65	alive    	1	moves	1	natural 	1	n	0	0    	 	0.0	0	156.2755189	156.37542630000002	0.0999074
167922	100	366	stimuli\movNat\waterfall\mn_waterfall06.jpg      	1	5	1	mn_waterfall06.jpg   	movNat   	3	waterfall 	37	waterfall06 	375	not_alive	0	moves	1	natural 	1	n	1	0    	 	0.0	0	156.4255341	156.52543169999998	0.09989760000000002
168072	100	367	stimuli\animals2\bee\animal_bee01.jpg            	1	5	1	animal_bee01.jpg     	animals2 	1	bee       	0	bee01       	0	alive    	1	moves	1	natural 	1	n	0	0    	 	0.0	0	156.5755178	156.67544119999997	0.0999234
168222	100	368	stimuli\movArt\car\ma_car02.jpg                  	1	5	1	ma_car02.jpg         	movArt   	2	car       	5	car02       	51	not_alive	0	moves	1	artefact	0	n	0	1    	f	0.3920208	1	156.72554530000002	156.825447	0.0999017
168372	100	369	stimuli\nonmovArt\headphones\nma_headphones07.jpg	1	5	1	nma_headphones07.jpg 	nonmovArt	4	headphones	18	headphones07	186	not_alive	0	still	0	artefact	0	n	0	0    	 	0.0	0	156.8756106	156.9754375	0.0998268999999999
168522	100	370	stimuli\nonmovArt\bench\nma_bench05.jpg          	1	5	1	nma_bench05.jpg      	nonmovArt	4	bench     	1	bench05     	14	not_alive	0	still	0	artefact	0	n	0	0    	 	0.0	0	157.02551069999998	157.1254289	0.0999182
168672	100	371	stimuli\movArt\helicopter\ma_helicopter09.jpg    	1	5	1	ma_helicopter09.jpg  	movArt   	2	helicopter	19	helicopter09	198	not_alive	0	moves	1	artefact	0	n	0	0    	 	0.0	0	157.1755226	157.2754335	0.0999109
168822	100	372	stimuli\movArt\helicopter\ma_helicopter08.jpg    	1	5	1	ma_helicopter08.jpg  	movArt   	2	helicopter	19	helicopter08	197	not_alive	0	moves	1	artefact	0	n	1	0    	 	0.0	0	157.32551809999998	157.42541709999998	0.099899
168972	100	373	stimuli\nonmovNat\shell\nmn_shell03.jpg          	1	5	1	nmn_shell03.jpg      	nonmovNat	5	shell     	32	shell03     	322	not_alive	0	still	0	natural 	1	n	0	0    	 	0.0	0	157.47550859999998	157.57543049999998	0.0999219
169122	100	374	stimuli\plant2\palmtree\plant_palmtree03.jpg     	1	5	1	plant_palmtree03.jpg 	plant2   	7	palmtree  	27	palmtree03  	272	alive    	1	still	0	natural 	1	n	0	0    	 	0.0	0	157.6255254	157.7254314	0.099906
169272	100	375	stimuli\plant2\moss\plant_moss07.jpg             	1	5	1	plant_moss07.jpg     	plant2   	7	moss      	25	moss07      	256	alive    	1	still	0	natural 	1	n	0	1    	f	0.44204319999999997	1	157.7755094	157.8754275	0.09991810000000001
169422	100	376	stimuli\movArt\bus\ma_bus02.jpg                  	1	5	1	ma_bus02.jpg         	movArt   	2	bus       	3	bus02       	31	not_alive	0	moves	1	artefact	0	n	0	0    	 	0.0	0	157.9255108	158.0254139	0.09990310000000001
169572	100	377	stimuli\movNat\fire\mn_fire01.jpg                	1	5	1	mn_fire01.jpg        	movNat   	3	fire      	15	fire01      	150	not_alive	0	moves	1	natural 	1	n	0	0    	 	0.0	0	158.0754664	158.17539580000002	0.0999294
169722	100	378	stimuli\plant\flower\plant_flower07.jpg          	1	5	1	plant_flower07.jpg   	plant    	6	flower    	16	flower07    	166	alive    	1	still	0	natural 	1	n	1	0    	 	0.0	0	158.2255225	158.3254196	0.0998971
169872	100	379	stimuli\movArt\bus\ma_bus04.jpg                  	1	5	1	ma_bus04.jpg         	movArt   	2	bus       	3	bus04       	33	not_alive	0	moves	1	artefact	0	n	0	0    	 	0.0	0	158.3754945	158.4754132	0.0999187
170022	100	380	stimuli\plant\grass\plant_grass08.jpg            	1	5	1	plant_grass08.jpg    	plant    	6	grass     	17	grass08     	177	alive    	1	still	0	natural 	1	n	0	1    	f	0.3920343	1	158.5255766	158.625402	0.0998254
170172	100	381	stimuli\plant\tree\plant_tree04.jpg              	1	5	1	plant_tree04.jpg     	plant    	6	tree      	35	tree04      	353	alive    	1	still	0	natural 	1	n	0	0    	 	0.0	0	158.6755138	158.7754146	0.0999008
170322	100	382	stimuli\movNat\river\mn_river08.jpg              	1	5	1	mn_river08.jpg       	movNat   	3	river     	29	river08     	297	not_alive	0	moves	1	natural 	1	n	0	0    	 	0.0	0	158.82549939999998	158.9254088	0.0999094
170472	100	383	stimuli\nonmovNat\cliff\nmn_cliff08.jpg          	1	5	1	nmn_cliff08.jpg      	nonmovNat	5	cliff     	7	cliff08     	77	not_alive	0	still	0	natural 	1	n	0	0    	 	0.0	0	158.97548500000002	159.0754138	0.0999288
170622	100	384	stimuli\animals\horse\animal_horse06.jpg         	1	5	1	animal_horse06.jpg   	animals  	0	horse     	20	horse06     	205	alive    	1	moves	1	natural 	1	n	0	0    	 	0.0	0	159.1254919	159.2253958	0.0999039
170772	100	385	stimuli\movNat\hotspring\mn_hotspring10.jpg      	1	5	1	mn_hotspring10.jpg   	movNat   	3	hotspring 	21	hotspring10 	219	not_alive	0	moves	1	natural 	1	n	0	0    	 	0.0	0	159.27549040000002	159.3754034	0.099913
170922	100	386	stimuli\animals\dog\animal_dog02.jpg             	1	5	1	animal_dog02.jpg     	animals  	0	dog       	11	dog02       	111	alive    	1	moves	1	natural 	1	n	0	0    	 	0.0	0	159.4254867	159.5253966	0.0999099
171072	100	387	stimuli\nonmovNat\cliff\nmn_cliff03.jpg          	1	5	1	nmn_cliff03.jpg      	nonmovNat	5	cliff     	7	cliff03     	72	not_alive	0	still	0	natural 	1	n	0	0    	 	0.0	0	159.57547730000002	159.6753967	0.0999193999999999
171222	100	388	stimuli\movNat\fire\mn_fire09.jpg                	1	5	1	mn_fire09.jpg        	movNat   	3	fire      	15	fire09      	158	not_alive	0	moves	1	natural 	1	n	0	0    	 	0.0	0	159.7254979	159.8253989	0.099901
171372	100	389	stimuli\nonmovArt\headphones\nma_headphones09.jpg	1	5	1	nma_headphones09.jpg 	nonmovArt	4	headphones	18	headphones09	188	not_alive	0	still	0	artefact	0	n	0	0    	 	0.0	0	159.87548869999998	159.9753996	0.0999109
171522	100	390	stimuli\animals\horse\animal_horse04.jpg         	1	5	1	animal_horse04.jpg   	animals  	0	horse     	20	horse04     	203	alive    	1	moves	1	natural 	1	n	0	0    	 	0.0	0	160.0255131	160.1253869	0.09987380000000001
171672	100	391	stimuli\movArt\boat\ma_boat07.jpg                	1	5	1	ma_boat07.jpg        	movArt   	2	boat      	2	boat07      	26	not_alive	0	moves	1	artefact	0	n	0	0    	 	0.0	0	160.17548440000002	160.2754034	0.09991900000000001
171822	100	392	stimuli\animals\cat\animal_cat10.jpg             	1	5	1	animal_cat10.jpg     	animals  	0	cat       	6	cat10       	69	alive    	1	moves	1	natural 	1	n	0	0    	 	0.0	0	160.3255457	160.4253857	0.09984
171972	100	393	stimuli\animals2\lemur\animal_lemur09.jpg        	1	5	1	animal_lemur09.jpg   	animals2 	1	lemur     	23	lemur09     	238	alive    	1	moves	1	natural 	1	n	0	0    	 	0.0	0	160.47547319999998	160.57538119999998	0.09990800000000001
172122	100	394	stimuli\nonmovArt\clothespeg\nma_clothespeg05.jpg	1	5	1	nma_clothespeg05.jpg 	nonmovArt	4	clothespeg	8	clothespeg05	84	not_alive	0	still	0	artefact	0	n	0	0    	 	0.0	0	160.62547450000002	160.7253899	0.0999154
172272	100	395	stimuli\nonmovArt\mug\nma_mug08.jpg              	1	5	1	nma_mug08.jpg        	nonmovArt	4	mug       	26	mug08       	267	not_alive	0	still	0	artefact	0	n	0	0    	 	0.0	0	160.7754793	160.87538940000002	0.09991010000000002
172422	100	396	stimuli\movNat\waterfall\mn_waterfall10.jpg      	1	5	1	mn_waterfall10.jpg   	movNat   	3	waterfall 	37	waterfall10 	379	not_alive	0	moves	1	natural 	1	n	0	0    	 	0.0	0	160.92547380000002	161.0253845	0.0999106999999999
172572	100	397	stimuli\plant2\palmtree\plant_palmtree07.jpg     	1	5	1	plant_palmtree07.jpg 	plant2   	7	palmtree  	27	palmtree07  	276	alive    	1	still	0	natural 	1	n	0	0    	 	0.0	0	161.07547730000002	161.17538000000002	0.0999027
172722	100	398	stimuli\nonmovArt\lock\nma_lock07.jpg            	1	5	1	nma_lock07.jpg       	nonmovArt	4	lock      	24	lock07      	246	not_alive	0	still	0	artefact	0	n	0	0    	 	0.0	0	161.2254697	161.3253809	0.0999111999999999
172872	100	399	stimuli\animals2\tiger\animal_tiger06.jpg        	1	5	1	animal_tiger06.jpg   	animals2 	1	tiger     	33	tiger06     	335	alive    	1	moves	1	natural 	1	n	0	0    	 	0.0	0	161.37546269999999	161.47538219999998	0.09991950000000001
174822	100	400	stimuli\plant2\fern\plant_fern10.jpg             	1	6	1	plant_fern10.jpg     	plant2   	7	fern      	14	fern10      	149	alive    	1	still	0	natural 	1	n	0	0    	 	0.0	0	163.32546519999997	163.4253558	0.09989060000000001
174972	100	401	stimuli\animals\eagle\animal_eagle06.jpg         	1	6	1	animal_eagle06.jpg   	animals  	0	eagle     	13	eagle06     	135	alive    	1	moves	1	natural 	1	n	0	0    	 	0.0	0	163.47544409999998	163.5753558	0.0999116999999999
175122	100	402	stimuli\nonmovNat\rock\nmn_rock08.jpg            	1	6	1	nmn_rock08.jpg       	nonmovNat	5	rock      	30	rock08      	307	not_alive	0	still	0	natural 	1	n	0	0    	 	0.0	0	163.625441	163.7253498	0.0999088
175272	100	403	stimuli\movNat\hotspring\mn_hotspring06.jpg      	1	6	1	mn_hotspring06.jpg   	movNat   	3	hotspring 	21	hotspring06 	215	not_alive	0	moves	1	natural 	1	n	0	0    	 	0.0	0	163.7754351	163.8753542	0.0999191
175422	100	404	stimuli\animals\dolphin\animal_dolphin01.jpg     	1	6	1	animal_dolphin01.jpg 	animals  	0	dolphin   	12	dolphin01   	120	alive    	1	moves	1	natural 	1	n	0	0    	 	0.0	0	163.9254386	164.02535769999997	0.0999191
175572	100	405	stimuli\animals2\whale\animal_whale06.jpg        	1	6	1	animal_whale06.jpg   	animals2 	1	whale     	39	whale06     	395	alive    	1	moves	1	natural 	1	n	0	0    	 	0.0	0	164.0754667	164.175366	0.09989930000000001
175722	100	406	stimuli\plant\cactus\plant_cactus10.jpg          	1	6	1	plant_cactus10.jpg   	plant    	6	cactus    	4	cactus10    	49	alive    	1	still	0	natural 	1	n	0	0    	 	0.0	0	164.2254474	164.325347	0.0998996
175872	100	407	stimuli\movArt\train\ma_train04.jpg              	1	6	1	ma_train04.jpg       	movArt   	2	train     	34	train04     	343	not_alive	0	moves	1	artefact	0	n	0	0    	 	0.0	0	164.3754352	164.47534109999998	0.0999058999999999
176022	100	408	stimuli\plant2\clover\plant_clover09.jpg         	1	6	1	plant_clover09.jpg   	plant2   	7	clover    	9	clover09    	98	alive    	1	still	0	natural 	1	n	0	0    	 	0.0	0	164.5254397	164.6253369	0.0998971999999999
176172	100	409	stimuli\nonmovNat\rock\nmn_rock01.jpg            	1	6	1	nmn_rock01.jpg       	nonmovNat	5	rock      	30	rock01      	300	not_alive	0	still	0	natural 	1	n	0	0    	 	0.0	0	164.6754282	164.7753439	0.0999157
176322	100	410	stimuli\plant\vine\plant_vine04.jpg              	1	6	1	plant_vine04.jpg     	plant    	6	vine      	36	vine04      	363	alive    	1	still	0	natural 	1	n	0	0    	 	0.0	0	164.8254235	164.9253446	0.0999211
176472	100	411	stimuli\plant\cactus\plant_cactus07.jpg          	1	6	1	plant_cactus07.jpg   	plant    	6	cactus    	4	cactus07    	46	alive    	1	still	0	natural 	1	n	0	0    	 	0.0	0	164.97541919999998	165.07535019999997	0.0999309999999999
176622	100	412	stimuli\plant2\lemontree\plant_lemontree04.jpg   	1	6	1	plant_lemontree04.jpg	plant2   	7	lemontree 	22	lemontree04 	223	alive    	1	still	0	natural 	1	n	0	0    	 	0.0	0	165.12542119999998	165.2253358	0.0999146
176772	100	413	stimuli\movNat\river\mn_river04.jpg              	1	6	1	mn_river04.jpg       	movNat   	3	river     	29	river04     	293	not_alive	0	moves	1	natural 	1	n	0	0    	 	0.0	0	165.2754344	165.37534019999998	0.0999058
176922	100	414	stimuli\nonmovNat\sand\nmn_sand04.jpg            	1	6	1	nmn_sand04.jpg       	nonmovNat	5	sand      	31	sand04      	313	not_alive	0	still	0	natural 	1	n	0	0    	 	0.0	0	165.425427	165.52532630000002	0.09989930000000001
177072	100	415	stimuli\animals\dolphin\animal_dolphin02.jpg     	1	6	1	animal_dolphin02.jpg 	animals  	0	dolphin   	12	dolphin02   	121	alive    	1	moves	1	natural 	1	n	0	1    	f	0.0	0	165.5754399	165.67532319999998	0.09988330000000001
177222	100	416	stimuli\nonmovNat\rock\nmn_rock10.jpg            	1	6	1	nmn_rock10.jpg       	nonmovNat	5	rock      	30	rock10      	309	not_alive	0	still	0	natural 	1	n	0	0    	 	0.0	0	165.7254239	165.8253397	0.0999158
177372	100	417	stimuli\animals2\tiger\animal_tiger08.jpg        	1	6	1	animal_tiger08.jpg   	animals2 	1	tiger     	33	tiger08     	337	alive    	1	moves	1	natural 	1	n	0	0    	 	0.0	0	165.8754926	165.9753345	0.0998419
177522	100	418	stimuli\animals\cat\animal_cat01.jpg             	1	6	1	animal_cat01.jpg     	animals  	0	cat       	6	cat01       	60	alive    	1	moves	1	natural 	1	n	0	0    	 	0.0	0	166.0254395	166.1253324	0.0998928999999999
177672	100	419	stimuli\animals\dog\animal_dog04.jpg             	1	6	1	animal_dog04.jpg     	animals  	0	dog       	11	dog04       	113	alive    	1	moves	1	natural 	1	n	0	0    	 	0.0	0	166.175414	166.2753493	0.0999353
177822	100	420	stimuli\animals2\lemur\animal_lemur02.jpg        	1	6	1	animal_lemur02.jpg   	animals2 	1	lemur     	23	lemur02     	231	alive    	1	moves	1	natural 	1	n	0	0    	 	0.0	0	166.3254237	166.4253284	0.0999047
177972	100	421	stimuli\plant\tree\plant_tree03.jpg              	1	6	1	plant_tree03.jpg     	plant    	6	tree      	35	tree03      	352	alive    	1	still	0	natural 	1	n	0	0    	 	0.0	0	166.47540580000003	166.57531609999998	0.09991030000000001
178122	100	422	stimuli\nonmovNat\sand\nmn_sand10.jpg            	1	6	1	nmn_sand10.jpg       	nonmovNat	5	sand      	31	sand10      	319	not_alive	0	still	0	natural 	1	n	0	0    	 	0.0	0	166.62539840000002	166.7253291	0.0999307
178272	100	423	stimuli\movNat\waves\mn_waves03.jpg              	1	6	1	mn_waves03.jpg       	movNat   	3	waves     	38	waves03     	382	not_alive	0	moves	1	natural 	1	n	0	0    	 	0.0	0	166.77548430000002	166.8754716	0.0999873
178422	100	424	stimuli\plant2\fern\plant_fern10.jpg             	1	6	1	plant_fern10.jpg     	plant2   	7	fern      	14	fern10      	149	alive    	1	still	0	natural 	1	n	0	0    	 	0.0	0	166.92541530000003	167.0253054	0.09989010000000001
178572	100	425	stimuli\nonmovArt\lock\nma_lock09.jpg            	1	6	1	nma_lock09.jpg       	nonmovArt	4	lock      	24	lock09      	248	not_alive	0	still	0	artefact	0	n	0	0    	 	0.0	0	167.07540469999998	167.17530259999998	0.0998979
178722	100	426	stimuli\plant\vine\plant_vine06.jpg              	1	6	1	plant_vine06.jpg     	plant    	6	vine      	36	vine06      	365	alive    	1	still	0	natural 	1	n	0	0    	 	0.0	0	167.22539440000003	167.32532340000003	0.0999289999999999
178872	100	427	stimuli\nonmovArt\bench\nma_bench02.jpg          	1	6	1	nma_bench02.jpg      	nonmovArt	4	bench     	1	bench02     	11	not_alive	0	still	0	artefact	0	n	0	0    	 	0.0	0	167.3754163	167.47531180000001	0.0998955
179022	100	428	stimuli\animals2\lemur\animal_lemur06.jpg        	1	6	1	animal_lemur06.jpg   	animals2 	1	lemur     	23	lemur06     	235	alive    	1	moves	1	natural 	1	n	0	0    	 	0.0	0	167.5253978	167.62530569999998	0.0999079
179172	100	429	stimuli\nonmovArt\headphones\nma_headphones03.jpg	1	6	1	nma_headphones03.jpg 	nonmovArt	4	headphones	18	headphones03	182	not_alive	0	still	0	artefact	0	n	0	0    	 	0.0	0	167.6754782	167.77532150000002	0.0998433
179322	100	430	stimuli\plant\grass\plant_grass10.jpg            	1	6	1	plant_grass10.jpg    	plant    	6	grass     	17	grass10     	179	alive    	1	still	0	natural 	1	n	0	0    	 	0.0	0	167.82541369999998	167.9253219	0.0999082
179472	100	431	stimuli\plant2\moss\plant_moss09.jpg             	1	6	1	plant_moss09.jpg     	plant2   	7	moss      	25	moss09      	258	alive    	1	still	0	natural 	1	n	0	0    	 	0.0	0	167.97540980000002	168.0753132	0.0999034
179622	100	432	stimuli\plant2\palmtree\plant_palmtree02.jpg     	1	6	1	plant_palmtree02.jpg 	plant2   	7	palmtree  	27	palmtree02  	271	alive    	1	still	0	natural 	1	n	0	0    	 	0.0	0	168.1253949	168.2252993	0.0999044
179772	100	433	stimuli\plant2\clover\plant_clover08.jpg         	1	6	1	plant_clover08.jpg   	plant2   	7	clover    	9	clover08    	97	alive    	1	still	0	natural 	1	n	0	0    	 	0.0	0	168.275394	168.37530700000002	0.099913
179922	100	434	stimuli\movArt\car\ma_car07.jpg                  	1	6	1	ma_car07.jpg         	movArt   	2	car       	5	car07       	56	not_alive	0	moves	1	artefact	0	n	0	0    	 	0.0	0	168.4253998	168.52527880000002	0.099879
180072	100	435	stimuli\nonmovNat\shell\nmn_shell02.jpg          	1	6	1	nmn_shell02.jpg      	nonmovNat	5	shell     	32	shell02     	321	not_alive	0	still	0	natural 	1	n	0	0    	 	0.0	0	168.5753844	168.675305	0.0999206
180222	100	436	stimuli\plant2\moss\plant_moss04.jpg             	1	6	1	plant_moss04.jpg     	plant2   	7	moss      	25	moss04      	253	alive    	1	still	0	natural 	1	n	0	0    	 	0.0	0	168.7253881	168.8252739	0.09988580000000001
180372	100	437	stimuli\movArt\helicopter\ma_helicopter07.jpg    	1	6	1	ma_helicopter07.jpg  	movArt   	2	helicopter	19	helicopter07	196	not_alive	0	moves	1	artefact	0	n	0	0    	 	0.0	0	168.87538519999998	168.9752919	0.0999067
180522	100	438	stimuli\animals\eagle\animal_eagle03.jpg         	1	6	1	animal_eagle03.jpg   	animals  	0	eagle     	13	eagle03     	132	alive    	1	moves	1	natural 	1	n	0	0    	 	0.0	0	169.0253968	169.1252811	0.09988430000000001
