onset	duration	eventnumber	stimulus_file	blockno	trialno	is_faststream	stim	stim_category	category_number	exemplar	exemplar_number	image_name	image_number	aliveness	aliveness_bin	movement	movement_bin	naturalness	naturalness_bin	response_hand_moves	istarget	response	keypressed	rt	correct	time_stimon	time_stimoff	stimdur
85976	100	0	stimuli\plant\tree\plant_tree07.jpg              	1	1	1	plant_tree07.jpg     	plant    	6	tree      	35	tree07      	356	alive    	1	still	0	natural 	1	n	0	0    	 	0.0	0	112.87487340000001	112.9747558	0.0998824
86126	100	1	stimuli\animals\cat\animal_cat05.jpg             	1	1	1	animal_cat05.jpg     	animals  	0	cat       	6	cat05       	64	alive    	1	moves	1	natural 	1	n	0	0    	 	0.0	0	113.0248754	113.1247455	0.0998701
86276	100	2	stimuli\movArt\bus\ma_bus05.jpg                  	1	1	1	ma_bus05.jpg         	movArt   	2	bus       	3	bus05       	34	not_alive	0	moves	1	artefact	0	n	0	0    	 	0.0	0	113.1748207	113.27473729999998	0.09991660000000001
86426	100	3	stimuli\nonmovNat\sand\nmn_sand02.jpg            	1	1	1	nmn_sand02.jpg       	nonmovNat	5	sand      	31	sand02      	311	not_alive	0	still	0	natural 	1	n	0	0    	 	0.0	0	113.32483329999998	113.4247393	0.099906
86576	100	4	stimuli\animals2\lemur\animal_lemur10.jpg        	1	1	1	animal_lemur10.jpg   	animals2 	1	lemur     	23	lemur10     	239	alive    	1	moves	1	natural 	1	n	0	0    	 	0.0	0	113.47482749999999	113.5747322	0.0999047
86726	100	5	stimuli\animals\dog\animal_dog10.jpg             	1	1	1	animal_dog10.jpg     	animals  	0	dog       	11	dog10       	119	alive    	1	moves	1	natural 	1	n	0	0    	 	0.0	0	113.62483929999999	113.72473190000001	0.0998926
86876	100	6	stimuli\animals2\bee\animal_bee01.jpg            	1	1	1	animal_bee01.jpg     	animals2 	1	bee       	0	bee01       	0	alive    	1	moves	1	natural 	1	n	0	0    	 	0.0	0	113.7748409	113.8747328	0.0998918999999999
87026	100	7	stimuli\movArt\car\ma_car06.jpg                  	1	1	1	ma_car06.jpg         	movArt   	2	car       	5	car06       	55	not_alive	0	moves	1	artefact	0	n	0	0    	 	0.0	0	113.9248338	114.0247723	0.0999385
87176	100	8	stimuli\animals\dolphin\animal_dolphin07.jpg     	1	1	1	animal_dolphin07.jpg 	animals  	0	dolphin   	12	dolphin07   	126	alive    	1	moves	1	natural 	1	n	0	0    	 	0.0	0	114.075272	114.1747375	0.0994655
87326	100	9	stimuli\nonmovNat\crystal\nmn_crystal08.jpg      	1	1	1	nmn_crystal08.jpg    	nonmovNat	5	crystal   	10	crystal08   	107	not_alive	0	still	0	natural 	1	n	0	0    	 	0.0	0	114.22483500000001	114.32472759999999	0.0998926
87476	100	10	stimuli\nonmovNat\rock\nmn_rock03.jpg            	1	1	1	nmn_rock03.jpg       	nonmovNat	5	rock      	30	rock03      	302	not_alive	0	still	0	natural 	1	n	0	0    	 	0.0	0	114.37482	114.4747237	0.0999037
87626	100	11	stimuli\nonmovNat\shell\nmn_shell06.jpg          	1	1	1	nmn_shell06.jpg      	nonmovNat	5	shell     	32	shell06     	325	not_alive	0	still	0	natural 	1	n	0	0    	 	0.0	0	114.52482739999999	114.6247175	0.09989010000000001
87776	100	12	stimuli\animals2\tiger\animal_tiger02.jpg        	1	1	1	animal_tiger02.jpg   	animals2 	1	tiger     	33	tiger02     	331	alive    	1	moves	1	natural 	1	n	0	0    	 	0.0	0	114.67481380000001	114.7747024	0.09988860000000001
87926	100	13	stimuli\movNat\hotspring\mn_hotspring10.jpg      	1	1	1	mn_hotspring10.jpg   	movNat   	3	hotspring 	21	hotspring10 	219	not_alive	0	moves	1	natural 	1	n	1	0    	 	0.0	0	114.82482639999999	114.9246949	0.0998685
88076	100	14	stimuli\movNat\fire\mn_fire03.jpg                	1	1	1	mn_fire03.jpg        	movNat   	3	fire      	15	fire03      	152	not_alive	0	moves	1	natural 	1	n	0	1    	f	0.2419665	1	114.97480859999999	115.074722	0.0999133999999999
88226	100	15	stimuli\animals2\whale\animal_whale02.jpg        	1	1	1	animal_whale02.jpg   	animals2 	1	whale     	39	whale02     	391	alive    	1	moves	1	natural 	1	n	0	0    	 	0.0	0	115.1248105	115.22472079999999	0.09991030000000001
88376	100	16	stimuli\animals\eagle\animal_eagle02.jpg         	1	1	1	animal_eagle02.jpg   	animals  	0	eagle     	13	eagle02     	131	alive    	1	moves	1	natural 	1	n	0	0    	 	0.0	0	115.27480619999999	115.3747125	0.0999063
88526	100	17	stimuli\nonmovNat\crystal\nmn_crystal02.jpg      	1	1	1	nmn_crystal02.jpg    	nonmovNat	5	crystal   	10	crystal02   	101	not_alive	0	still	0	natural 	1	n	0	0    	 	0.0	0	115.42484520000001	115.5247096	0.0998643999999999
88676	100	18	stimuli\plant\grass\plant_grass06.jpg            	1	1	1	plant_grass06.jpg    	plant    	6	grass     	17	grass06     	175	alive    	1	still	0	natural 	1	n	0	0    	 	0.0	0	115.5748153	115.6747001	0.09988480000000001
88826	100	19	stimuli\movNat\river\mn_river05.jpg              	1	1	1	mn_river05.jpg       	movNat   	3	river     	29	river05     	294	not_alive	0	moves	1	natural 	1	n	0	0    	 	0.0	0	115.72480949999999	115.82474199999999	0.09993250000000001
88976	100	20	stimuli\plant\cactus\plant_cactus03.jpg          	1	1	1	plant_cactus03.jpg   	plant    	6	cactus    	4	cactus03    	42	alive    	1	still	0	natural 	1	n	0	0    	 	0.0	0	115.87490530000001	115.97473329999998	0.099828
89126	100	21	stimuli\plant\grass\plant_grass01.jpg            	1	1	1	plant_grass01.jpg    	plant    	6	grass     	17	grass01     	170	alive    	1	still	0	natural 	1	n	0	0    	 	0.0	0	116.0248064	116.12470559999998	0.0998992
89276	100	22	stimuli\plant\flower\plant_flower05.jpg          	1	1	1	plant_flower05.jpg   	plant    	6	flower    	16	flower05    	164	alive    	1	still	0	natural 	1	n	0	0    	 	0.0	0	116.174801	116.2747038	0.0999028
89426	100	23	stimuli\movArt\boat\ma_boat08.jpg                	1	1	1	ma_boat08.jpg        	movArt   	2	boat      	2	boat08      	27	not_alive	0	moves	1	artefact	0	n	0	0    	 	0.0	0	116.324795	116.4247131	0.09991810000000001
89576	100	24	stimuli\nonmovArt\headphones\nma_headphones08.jpg	1	1	1	nma_headphones08.jpg 	nonmovArt	4	headphones	18	headphones08	187	not_alive	0	still	0	artefact	0	n	0	0    	 	0.0	0	116.4748018	116.57470049999999	0.0998986999999999
89726	100	25	stimuli\movNat\waves\mn_waves03.jpg              	1	1	1	mn_waves03.jpg       	movNat   	3	waves     	38	waves03     	382	not_alive	0	moves	1	natural 	1	n	0	0    	 	0.0	0	116.62479760000001	116.7247162	0.09991860000000001
89876	100	26	stimuli\movNat\waterfall\mn_waterfall10.jpg      	1	1	1	mn_waterfall10.jpg   	movNat   	3	waterfall 	37	waterfall10 	379	not_alive	0	moves	1	natural 	1	n	0	0    	 	0.0	0	116.77479309999998	116.8746993	0.0999062
90026	100	27	stimuli\animals2\whale\animal_whale05.jpg        	1	1	1	animal_whale05.jpg   	animals2 	1	whale     	39	whale05     	394	alive    	1	moves	1	natural 	1	n	0	0    	 	0.0	0	116.9248001	117.0246931	0.099893
90176	100	28	stimuli\movArt\train\ma_train09.jpg              	1	1	1	ma_train09.jpg       	movArt   	2	train     	34	train09     	348	not_alive	0	moves	1	artefact	0	n	0	0    	 	0.0	0	117.074795	117.17469340000001	0.0998984
90326	100	29	stimuli\movArt\train\ma_train09.jpg              	1	1	1	ma_train09.jpg       	movArt   	2	train     	34	train09     	348	not_alive	0	moves	1	artefact	0	n	0	0    	 	0.0	0	117.224795	117.3246989	0.0999039
90476	100	30	stimuli\animals\horse\animal_horse01.jpg         	1	1	1	animal_horse01.jpg   	animals  	0	horse     	20	horse01     	200	alive    	1	moves	1	natural 	1	n	0	0    	 	0.0	0	117.37478519999999	117.47471350000001	0.0999283
90626	100	31	stimuli\plant2\lemontree\plant_lemontree01.jpg   	1	1	1	plant_lemontree01.jpg	plant2   	7	lemontree 	22	lemontree01 	220	alive    	1	still	0	natural 	1	n	0	0    	 	0.0	0	117.5247894	117.6246808	0.0998914
90776	100	32	stimuli\plant2\moss\plant_moss01.jpg             	1	1	1	plant_moss01.jpg     	plant2   	7	moss      	25	moss01      	250	alive    	1	still	0	natural 	1	n	0	0    	 	0.0	0	117.674889	117.7746889	0.0997999
90926	100	33	stimuli\nonmovNat\shell\nmn_shell07.jpg          	1	1	1	nmn_shell07.jpg      	nonmovNat	5	shell     	32	shell07     	326	not_alive	0	still	0	natural 	1	n	0	0    	 	0.0	0	117.82480840000001	117.92469309999998	0.0998846999999999
91076	100	34	stimuli\plant\cactus\plant_cactus05.jpg          	1	1	1	plant_cactus05.jpg   	plant    	6	cactus    	4	cactus05    	44	alive    	1	still	0	natural 	1	n	0	0    	 	0.0	0	117.9747868	118.0746831	0.09989630000000001
91226	100	35	stimuli\animals2\bee\animal_bee03.jpg            	1	1	1	animal_bee03.jpg     	animals2 	1	bee       	0	bee03       	2	alive    	1	moves	1	natural 	1	n	0	0    	 	0.0	0	118.12477859999998	118.22468740000001	0.0999088
91376	100	36	stimuli\plant2\lemontree\plant_lemontree01.jpg   	1	1	1	plant_lemontree01.jpg	plant2   	7	lemontree 	22	lemontree01 	220	alive    	1	still	0	natural 	1	n	0	0    	 	0.0	0	118.27477549999999	118.37470320000001	0.0999277
91526	100	37	stimuli\animals2\tiger\animal_tiger09.jpg        	1	1	1	animal_tiger09.jpg   	animals2 	1	tiger     	33	tiger09     	338	alive    	1	moves	1	natural 	1	n	0	0    	 	0.0	0	118.4247815	118.5246701	0.09988860000000001
91675	100	38	stimuli\animals2\tiger\animal_tiger08.jpg        	1	1	1	animal_tiger08.jpg   	animals2 	1	tiger     	33	tiger08     	337	alive    	1	moves	1	natural 	1	n	0	0    	 	0.0	0	118.57476509999998	118.6746706	0.0999055
91825	100	39	stimuli\plant\vine\plant_vine05.jpg              	1	1	1	plant_vine05.jpg     	plant    	6	vine      	36	vine05      	364	alive    	1	still	0	natural 	1	n	0	0    	 	0.0	0	118.7247665	118.8246662	0.0998997
91975	100	40	stimuli\movArt\car\ma_car01.jpg                  	1	1	1	ma_car01.jpg         	movArt   	2	car       	5	car01       	50	not_alive	0	moves	1	artefact	0	n	0	0    	 	0.0	0	118.87476799999999	118.9746737	0.0999057
92125	100	41	stimuli\movNat\fire\mn_fire03.jpg                	1	1	1	mn_fire03.jpg        	movNat   	3	fire      	15	fire03      	152	not_alive	0	moves	1	natural 	1	n	0	0    	 	0.0	0	119.02476259999999	119.12465970000001	0.0998971
92276	100	42	stimuli\nonmovNat\sand\nmn_sand03.jpg            	1	1	1	nmn_sand03.jpg       	nonmovNat	5	sand      	31	sand03      	312	not_alive	0	still	0	natural 	1	n	0	0    	 	0.0	0	119.17478329999999	119.27466729999999	0.099884
92426	100	43	stimuli\plant2\moss\plant_moss08.jpg             	1	1	1	plant_moss08.jpg     	plant2   	7	moss      	25	moss08      	257	alive    	1	still	0	natural 	1	n	0	0    	 	0.0	0	119.32479	119.4246746	0.0998846
92576	100	44	stimuli\movArt\helicopter\ma_helicopter03.jpg    	1	1	1	ma_helicopter03.jpg  	movArt   	2	helicopter	19	helicopter03	192	not_alive	0	moves	1	artefact	0	n	0	0    	 	0.0	0	119.47487179999999	119.57467040000002	0.09979860000000002
92725	100	45	stimuli\nonmovArt\headphones\nma_headphones08.jpg	1	1	1	nma_headphones08.jpg 	nonmovArt	4	headphones	18	headphones08	187	not_alive	0	still	0	artefact	0	n	0	0    	 	0.0	0	119.6247489	119.7246818	0.0999328999999999
92875	100	46	stimuli\nonmovArt\lock\nma_lock10.jpg            	1	1	1	nma_lock10.jpg       	nonmovArt	4	lock      	24	lock10      	249	not_alive	0	still	0	artefact	0	n	0	0    	 	0.0	0	119.7747613	119.87467450000001	0.0999132
93025	100	47	stimuli\nonmovNat\cliff\nmn_cliff01.jpg          	1	1	1	nmn_cliff01.jpg      	nonmovNat	5	cliff     	7	cliff01     	70	not_alive	0	still	0	natural 	1	n	0	0    	 	0.0	0	119.9247443	120.02467240000001	0.0999281
93176	100	48	stimuli\plant\vine\plant_vine04.jpg              	1	1	1	plant_vine04.jpg     	plant    	6	vine      	36	vine04      	363	alive    	1	still	0	natural 	1	n	0	0    	 	0.0	0	120.0747744	120.1746508	0.0998763999999999
93325	100	49	stimuli\plant2\palmtree\plant_palmtree06.jpg     	1	1	1	plant_palmtree06.jpg 	plant2   	7	palmtree  	27	palmtree06  	275	alive    	1	still	0	natural 	1	n	0	0    	 	0.0	0	120.2247585	120.3246591	0.0999006
93475	100	50	stimuli\plant2\moss\plant_moss09.jpg             	1	1	1	plant_moss09.jpg     	plant2   	7	moss      	25	moss09      	258	alive    	1	still	0	natural 	1	n	0	0    	 	0.0	0	120.3747517	120.47466419999999	0.0999125
93626	100	51	stimuli\animals2\pigeon\animal_pigeon05.jpg      	1	1	1	animal_pigeon05.jpg  	animals2 	1	pigeon    	28	pigeon05    	284	alive    	1	moves	1	natural 	1	n	0	0    	 	0.0	0	120.52476000000001	120.62463090000001	0.0998709
93776	100	52	stimuli\animals2\lemur\animal_lemur04.jpg        	1	1	1	animal_lemur04.jpg   	animals2 	1	lemur     	23	lemur04     	233	alive    	1	moves	1	natural 	1	n	1	0    	 	0.0	0	120.6747713	120.77465120000001	0.0998799
93925	100	53	stimuli\movNat\river\mn_river06.jpg              	1	1	1	mn_river06.jpg       	movNat   	3	river     	29	river06     	295	not_alive	0	moves	1	natural 	1	n	0	1    	f	0.2500658	1	120.8247562	120.92464879999999	0.0998926
94075	100	54	stimuli\movArt\bus\ma_bus06.jpg                  	1	1	1	ma_bus06.jpg         	movArt   	2	bus       	3	bus06       	35	not_alive	0	moves	1	artefact	0	n	0	0    	 	0.0	0	120.9747509	121.0746568	0.0999058999999999
94226	100	55	stimuli\movArt\helicopter\ma_helicopter05.jpg    	1	1	1	ma_helicopter05.jpg  	movArt   	2	helicopter	19	helicopter05	194	not_alive	0	moves	1	artefact	0	n	0	0    	 	0.0	0	121.12482450000002	121.22474960000001	0.0999251
94376	100	56	stimuli\nonmovArt\headphones\nma_headphones10.jpg	1	1	1	nma_headphones10.jpg 	nonmovArt	4	headphones	18	headphones10	189	not_alive	0	still	0	artefact	0	n	0	0    	 	0.0	0	121.2749281	121.37463729999999	0.0997092
94525	100	57	stimuli\animals\eagle\animal_eagle04.jpg         	1	1	1	animal_eagle04.jpg   	animals  	0	eagle     	13	eagle04     	133	alive    	1	moves	1	natural 	1	n	0	0    	 	0.0	0	121.4247355	121.5246379	0.0999023999999999
94675	100	58	stimuli\animals\cat\animal_cat05.jpg             	1	1	1	animal_cat05.jpg     	animals  	0	cat       	6	cat05       	64	alive    	1	moves	1	natural 	1	n	1	0    	 	0.0	0	121.57474950000001	121.67461909999999	0.0998696
94826	100	59	stimuli\plant2\clover\plant_clover05.jpg         	1	1	1	plant_clover05.jpg   	plant2   	7	clover    	9	clover05    	94	alive    	1	still	0	natural 	1	n	0	0    	 	0.0	0	121.7247531	121.82464109999998	0.099888
94975	100	60	stimuli\animals\cat\animal_cat02.jpg             	1	1	1	animal_cat02.jpg     	animals  	0	cat       	6	cat02       	61	alive    	1	moves	1	natural 	1	n	0	0    	 	0.0	0	121.87474399999999	121.9746588	0.0999148
95125	100	61	stimuli\plant2\lemontree\plant_lemontree07.jpg   	1	1	1	plant_lemontree07.jpg	plant2   	7	lemontree 	22	lemontree07 	226	alive    	1	still	0	natural 	1	n	0	1    	f	0.5419773	1	122.02473970000001	122.12465049999999	0.09991080000000001
95275	100	62	stimuli\movArt\bus\ma_bus04.jpg                  	1	1	1	ma_bus04.jpg         	movArt   	2	bus       	3	bus04       	33	not_alive	0	moves	1	artefact	0	n	0	0    	 	0.0	0	122.1747272	122.27465149999999	0.09992430000000001
95426	100	63	stimuli\nonmovNat\cliff\nmn_cliff08.jpg          	1	1	1	nmn_cliff08.jpg      	nonmovNat	5	cliff     	7	cliff08     	77	not_alive	0	still	0	natural 	1	n	0	0    	 	0.0	0	122.3247472	122.42464540000002	0.0998981999999999
95576	100	64	stimuli\animals2\bee\animal_bee05.jpg            	1	1	1	animal_bee05.jpg     	animals2 	1	bee       	0	bee05       	4	alive    	1	moves	1	natural 	1	n	0	0    	 	0.0	0	122.4747433	122.5746363	0.099893
95725	100	65	stimuli\plant\cactus\plant_cactus10.jpg          	1	1	1	plant_cactus10.jpg   	plant    	6	cactus    	4	cactus10    	49	alive    	1	still	0	natural 	1	n	1	0    	 	0.0	0	122.6247341	122.72464599999999	0.0999119
95875	100	66	stimuli\plant2\clover\plant_clover10.jpg         	1	1	1	plant_clover10.jpg   	plant2   	7	clover    	9	clover10    	99	alive    	1	still	0	natural 	1	n	0	0    	 	0.0	0	122.77473130000001	122.874642	0.0999106999999999
96026	100	67	stimuli\animals2\pigeon\animal_pigeon09.jpg      	1	1	1	animal_pigeon09.jpg  	animals2 	1	pigeon    	28	pigeon09    	288	alive    	1	moves	1	natural 	1	n	0	1    	f	0.39203330000000003	1	122.92476129999999	123.0247372	0.0999758999999999
96176	100	68	stimuli\animals\dog\animal_dog07.jpg             	1	1	1	animal_dog07.jpg     	animals  	0	dog       	11	dog07       	116	alive    	1	moves	1	natural 	1	n	0	0    	 	0.0	0	123.07477959999999	123.17462079999999	0.0998411999999999
96325	100	69	stimuli\plant2\palmtree\plant_palmtree07.jpg     	1	1	1	plant_palmtree07.jpg 	plant2   	7	palmtree  	27	palmtree07  	276	alive    	1	still	0	natural 	1	n	0	0    	 	0.0	0	123.2247263	123.3246213	0.099895
96475	100	70	stimuli\plant\tree\plant_tree07.jpg              	1	1	1	plant_tree07.jpg     	plant    	6	tree      	35	tree07      	356	alive    	1	still	0	natural 	1	n	0	0    	 	0.0	0	123.3747213	123.47460840000001	0.0998871
96625	100	71	stimuli\animals\horse\animal_horse08.jpg         	1	1	1	animal_horse08.jpg   	animals  	0	horse     	20	horse08     	207	alive    	1	moves	1	natural 	1	n	0	0    	 	0.0	0	123.52473140000001	123.6246236	0.0998922
96775	100	72	stimuli\movNat\hotspring\mn_hotspring02.jpg      	1	1	1	mn_hotspring02.jpg   	movNat   	3	hotspring 	21	hotspring02 	211	not_alive	0	moves	1	natural 	1	n	0	0    	 	0.0	0	123.67472830000001	123.7746235	0.0998952
96925	100	73	stimuli\nonmovArt\bench\nma_bench02.jpg          	1	1	1	nma_bench02.jpg      	nonmovArt	4	bench     	1	bench02     	11	not_alive	0	still	0	artefact	0	n	0	0    	 	0.0	0	123.8247247	123.92460790000001	0.0998832
97075	100	74	stimuli\movNat\waves\mn_waves07.jpg              	1	1	1	mn_waves07.jpg       	movNat   	3	waves     	38	waves07     	386	not_alive	0	moves	1	natural 	1	n	0	0    	 	0.0	0	123.97473559999999	124.0746263	0.0998907
97225	100	75	stimuli\nonmovArt\clothespeg\nma_clothespeg06.jpg	1	1	1	nma_clothespeg06.jpg 	nonmovArt	4	clothespeg	8	clothespeg06	85	not_alive	0	still	0	artefact	0	n	0	0    	 	0.0	0	124.1247183	124.22462309999999	0.0999048
97375	100	76	stimuli\plant\flower\plant_flower03.jpg          	1	1	1	plant_flower03.jpg   	plant    	6	flower    	16	flower03    	162	alive    	1	still	0	natural 	1	n	0	0    	 	0.0	0	124.2747132	124.37463290000001	0.0999197
97525	100	77	stimuli\nonmovNat\sand\nmn_sand09.jpg            	1	1	1	nmn_sand09.jpg       	nonmovNat	5	sand      	31	sand09      	318	not_alive	0	still	0	natural 	1	n	0	0    	 	0.0	0	124.4247215	124.52465359999998	0.0999321
97676	100	78	stimuli\movNat\fire\mn_fire09.jpg                	1	1	1	mn_fire09.jpg        	movNat   	3	fire      	15	fire09      	158	not_alive	0	moves	1	natural 	1	n	0	0    	 	0.0	0	124.57473870000001	124.6746385	0.09989980000000001
97826	100	79	stimuli\nonmovNat\rock\nmn_rock06.jpg            	1	1	1	nmn_rock06.jpg       	nonmovNat	5	rock      	30	rock06      	305	not_alive	0	still	0	natural 	1	n	0	0    	 	0.0	0	124.7248479	124.82476899999999	0.0999211
105509	100	80	stimuli\nonmovArt\lock\nma_lock06.jpg            	1	2	1	nma_lock06.jpg       	nonmovArt	4	lock      	24	lock06      	245	not_alive	0	still	0	artefact	0	n	0	0    	 	0.0	0	132.40796890000001	132.5078591	0.0998902
105659	100	81	stimuli\plant\grass\plant_grass03.jpg            	1	2	1	plant_grass03.jpg    	plant    	6	grass     	17	grass03     	172	alive    	1	still	0	natural 	1	n	0	0    	 	0.0	0	132.5579662	132.6580428	0.1000766
105809	100	82	stimuli\movNat\waterfall\mn_waterfall01.jpg      	1	2	1	mn_waterfall01.jpg   	movNat   	3	waterfall 	37	waterfall01 	370	not_alive	0	moves	1	natural 	1	n	0	0    	 	0.0	0	132.7080728	132.8078758	0.099803
105959	100	83	stimuli\plant2\palmtree\plant_palmtree01.jpg     	1	2	1	plant_palmtree01.jpg 	plant2   	7	palmtree  	27	palmtree01  	270	alive    	1	still	0	natural 	1	n	0	0    	 	0.0	0	132.8579518	132.9578733	0.0999215
106109	100	84	stimuli\nonmovArt\clothespeg\nma_clothespeg08.jpg	1	2	1	nma_clothespeg08.jpg 	nonmovArt	4	clothespeg	8	clothespeg08	87	not_alive	0	still	0	artefact	0	n	0	0    	 	0.0	0	133.0079534	133.1078536	0.0999002
106259	100	85	stimuli\nonmovNat\cliff\nmn_cliff10.jpg          	1	2	1	nmn_cliff10.jpg      	nonmovNat	5	cliff     	7	cliff10     	79	not_alive	0	still	0	natural 	1	n	0	0    	 	0.0	0	133.1579619	133.25784720000001	0.09988530000000001
106409	100	86	stimuli\animals2\whale\animal_whale03.jpg        	1	2	1	animal_whale03.jpg   	animals2 	1	whale     	39	whale03     	392	alive    	1	moves	1	natural 	1	n	0	0    	 	0.0	0	133.3079724	133.4078331	0.0998607
106559	100	87	stimuli\movArt\helicopter\ma_helicopter06.jpg    	1	2	1	ma_helicopter06.jpg  	movArt   	2	helicopter	19	helicopter06	195	not_alive	0	moves	1	artefact	0	n	0	0    	 	0.0	0	133.45795479999998	133.55784350000002	0.0998887
106709	100	88	stimuli\nonmovArt\lock\nma_lock04.jpg            	1	2	1	nma_lock04.jpg       	nonmovArt	4	lock      	24	lock04      	243	not_alive	0	still	0	artefact	0	n	0	0    	 	0.0	0	133.6079445	133.7078415	0.099897
106859	100	89	stimuli\nonmovArt\mug\nma_mug08.jpg              	1	2	1	nma_mug08.jpg        	nonmovArt	4	mug       	26	mug08       	267	not_alive	0	still	0	artefact	0	n	0	0    	 	0.0	0	133.7579501	133.85784679999998	0.0998967
107009	100	90	stimuli\plant\tree\plant_tree09.jpg              	1	2	1	plant_tree09.jpg     	plant    	6	tree      	35	tree09      	358	alive    	1	still	0	natural 	1	n	0	0    	 	0.0	0	133.9079259	134.0078541	0.0999282
107159	100	91	stimuli\movNat\hotspring\mn_hotspring10.jpg      	1	2	1	mn_hotspring10.jpg   	movNat   	3	hotspring 	21	hotspring10 	219	not_alive	0	moves	1	natural 	1	n	0	0    	 	0.0	0	134.0579412	134.1578519	0.0999106999999999
107309	100	92	stimuli\movArt\car\ma_car05.jpg                  	1	2	1	ma_car05.jpg         	movArt   	2	car       	5	car05       	54	not_alive	0	moves	1	artefact	0	n	0	0    	 	0.0	0	134.20793429999998	134.30784599999998	0.0999116999999999
107459	100	93	stimuli\nonmovArt\bench\nma_bench05.jpg          	1	2	1	nma_bench05.jpg      	nonmovArt	4	bench     	1	bench05     	14	not_alive	0	still	0	artefact	0	n	0	0    	 	0.0	0	134.3579458	134.45785	0.0999042
107609	100	94	stimuli\nonmovNat\crystal\nmn_crystal03.jpg      	1	2	1	nmn_crystal03.jpg    	nonmovNat	5	crystal   	10	crystal03   	102	not_alive	0	still	0	natural 	1	n	0	0    	 	0.0	0	134.50804680000002	134.60784180000002	0.09979500000000001
107759	100	95	stimuli\plant2\fern\plant_fern02.jpg             	1	2	1	plant_fern02.jpg     	plant2   	7	fern      	14	fern02      	141	alive    	1	still	0	natural 	1	n	0	0    	 	0.0	0	134.6579507	134.7578466	0.0998959
107909	100	96	stimuli\plant\flower\plant_flower08.jpg          	1	2	1	plant_flower08.jpg   	plant    	6	flower    	16	flower08    	167	alive    	1	still	0	natural 	1	n	1	0    	 	0.0	0	134.8079333	134.9078384	0.09990510000000001
108059	100	97	stimuli\movNat\waves\mn_waves03.jpg              	1	2	1	mn_waves03.jpg       	movNat   	3	waves     	38	waves03     	382	not_alive	0	moves	1	natural 	1	n	0	0    	 	0.0	0	134.9579345	135.0578389	0.0999044
108209	100	98	stimuli\animals\eagle\animal_eagle10.jpg         	1	2	1	animal_eagle10.jpg   	animals  	0	eagle     	13	eagle10     	139	alive    	1	moves	1	natural 	1	n	0	1    	f	0.29203559999999995	1	135.1079358	135.2078343	0.0998985
108359	100	99	stimuli\movArt\boat\ma_boat10.jpg                	1	2	1	ma_boat10.jpg        	movArt   	2	boat      	2	boat10      	29	not_alive	0	moves	1	artefact	0	n	0	0    	 	0.0	0	135.2579229	135.35782519999998	0.0999023
108509	100	100	stimuli\animals2\lemur\animal_lemur10.jpg        	1	2	1	animal_lemur10.jpg   	animals2 	1	lemur     	23	lemur10     	239	alive    	1	moves	1	natural 	1	n	0	0    	 	0.0	0	135.4079122	135.5078237	0.0999115
108659	100	101	stimuli\nonmovNat\shell\nmn_shell09.jpg          	1	2	1	nmn_shell09.jpg      	nonmovNat	5	shell     	32	shell09     	328	not_alive	0	still	0	natural 	1	n	0	0    	 	0.0	0	135.5579177	135.6578404	0.0999227
108809	100	102	stimuli\animals\horse\animal_horse09.jpg         	1	2	1	animal_horse09.jpg   	animals  	0	horse     	20	horse09     	208	alive    	1	moves	1	natural 	1	n	0	0    	 	0.0	0	135.70792409999999	135.8078313	0.0999072
108959	100	103	stimuli\movArt\train\ma_train10.jpg              	1	2	1	ma_train10.jpg       	movArt   	2	train     	34	train10     	349	not_alive	0	moves	1	artefact	0	n	0	0    	 	0.0	0	135.85792469999998	135.9578199	0.0998952
109109	100	104	stimuli\nonmovArt\bench\nma_bench03.jpg          	1	2	1	nma_bench03.jpg      	nonmovArt	4	bench     	1	bench03     	12	not_alive	0	still	0	artefact	0	n	1	0    	 	0.0	0	136.00792090000002	136.10780669999997	0.09988580000000001
109259	100	105	stimuli\plant2\fern\plant_fern05.jpg             	1	2	1	plant_fern05.jpg     	plant2   	7	fern      	14	fern05      	144	alive    	1	still	0	natural 	1	n	0	0    	 	0.0	0	136.15799630000004	136.2579171	0.0999208
109409	100	106	stimuli\movNat\waterfall\mn_waterfall02.jpg      	1	2	1	mn_waterfall02.jpg   	movNat   	3	waterfall 	37	waterfall02 	371	not_alive	0	moves	1	natural 	1	n	0	1    	f	0.39207270000000005	1	136.30801430000002	136.407817	0.0998027
109559	100	107	stimuli\animals\dog\animal_dog10.jpg             	1	2	1	animal_dog10.jpg     	animals  	0	dog       	11	dog10       	119	alive    	1	moves	1	natural 	1	n	0	0    	 	0.0	0	136.4579081	136.5578104	0.0999023
109709	100	108	stimuli\plant2\clover\plant_clover05.jpg         	1	2	1	plant_clover05.jpg   	plant2   	7	clover    	9	clover05    	94	alive    	1	still	0	natural 	1	n	0	0    	 	0.0	0	136.60792780000003	136.7078188	0.099891
109859	100	109	stimuli\plant\vine\plant_vine09.jpg              	1	2	1	plant_vine09.jpg     	plant    	6	vine      	36	vine09      	368	alive    	1	still	0	natural 	1	n	0	0    	 	0.0	0	136.75790569999998	136.85781599999999	0.09991030000000001
110009	100	110	stimuli\nonmovArt\mug\nma_mug09.jpg              	1	2	1	nma_mug09.jpg        	nonmovArt	4	mug       	26	mug09       	268	not_alive	0	still	0	artefact	0	n	0	0    	 	0.0	0	136.90791399999998	137.00781630000003	0.0999023
110159	100	111	stimuli\movArt\boat\ma_boat02.jpg                	1	2	1	ma_boat02.jpg        	movArt   	2	boat      	2	boat02      	21	not_alive	0	moves	1	artefact	0	n	0	0    	 	0.0	0	137.05791269999997	137.15781330000002	0.0999006
110309	100	112	stimuli\movNat\river\mn_river02.jpg              	1	2	1	mn_river02.jpg       	movNat   	3	river     	29	river02     	291	not_alive	0	moves	1	natural 	1	n	0	0    	 	0.0	0	137.20792	137.3078166	0.0998966
110459	100	113	stimuli\animals\dolphin\animal_dolphin07.jpg     	1	2	1	animal_dolphin07.jpg 	animals  	0	dolphin   	12	dolphin07   	126	alive    	1	moves	1	natural 	1	n	0	0    	 	0.0	0	137.35791319999998	137.45781169999998	0.0998985
110609	100	114	stimuli\plant2\fern\plant_fern08.jpg             	1	2	1	plant_fern08.jpg     	plant2   	7	fern      	14	fern08      	147	alive    	1	still	0	natural 	1	n	0	0    	 	0.0	0	137.5079241	137.6078075	0.0998834
110759	100	115	stimuli\nonmovArt\mug\nma_mug08.jpg              	1	2	1	nma_mug08.jpg        	nonmovArt	4	mug       	26	mug08       	267	not_alive	0	still	0	artefact	0	n	0	0    	 	0.0	0	137.6579186	137.75779599999998	0.0998773999999999
110909	100	116	stimuli\nonmovNat\rock\nmn_rock07.jpg            	1	2	1	nmn_rock07.jpg       	nonmovNat	5	rock      	30	rock07      	306	not_alive	0	still	0	natural 	1	n	0	0    	 	0.0	0	137.8079195	137.9078121	0.0998926
111059	100	117	stimuli\animals2\pigeon\animal_pigeon02.jpg      	1	2	1	animal_pigeon02.jpg  	animals2 	1	pigeon    	28	pigeon02    	281	alive    	1	moves	1	natural 	1	n	0	0    	 	0.0	0	137.95788149999998	138.05781149999999	0.0999299999999999
111209	100	118	stimuli\nonmovArt\clothespeg\nma_clothespeg08.jpg	1	2	1	nma_clothespeg08.jpg 	nonmovArt	4	clothespeg	8	clothespeg08	87	not_alive	0	still	0	artefact	0	n	0	0    	 	0.0	0	138.1079551	138.207803	0.0998478999999999
111359	100	119	stimuli\animals\dolphin\animal_dolphin03.jpg     	1	2	1	animal_dolphin03.jpg 	animals  	0	dolphin   	12	dolphin03   	122	alive    	1	moves	1	natural 	1	n	0	0    	 	0.0	0	138.25791919999998	138.3577858	0.0998666
111509	100	120	stimuli\nonmovArt\clothespeg\nma_clothespeg05.jpg	1	2	1	nma_clothespeg05.jpg 	nonmovArt	4	clothespeg	8	clothespeg05	84	not_alive	0	still	0	artefact	0	n	0	0    	 	0.0	0	138.407898	138.5077907	0.0998927
111659	100	121	stimuli\movArt\train\ma_train05.jpg              	1	2	1	ma_train05.jpg       	movArt   	2	train     	34	train05     	344	not_alive	0	moves	1	artefact	0	n	0	0    	 	0.0	0	138.5579034	138.65780139999998	0.099898
111809	100	122	stimuli\plant\vine\plant_vine06.jpg              	1	2	1	plant_vine06.jpg     	plant    	6	vine      	36	vine06      	365	alive    	1	still	0	natural 	1	n	0	0    	 	0.0	0	138.7078956	138.8077929	0.09989730000000001
111959	100	123	stimuli\animals\dog\animal_dog03.jpg             	1	2	1	animal_dog03.jpg     	animals  	0	dog       	11	dog03       	112	alive    	1	moves	1	natural 	1	n	0	0    	 	0.0	0	138.8579044	138.9577981	0.0998937
112109	100	124	stimuli\nonmovArt\mug\nma_mug10.jpg              	1	2	1	nma_mug10.jpg        	nonmovArt	4	mug       	26	mug10       	269	not_alive	0	still	0	artefact	0	n	0	0    	 	0.0	0	139.0078915	139.1077823	0.0998908
112259	100	125	stimuli\animals2\tiger\animal_tiger04.jpg        	1	2	1	animal_tiger04.jpg   	animals2 	1	tiger     	33	tiger04     	333	alive    	1	moves	1	natural 	1	n	0	0    	 	0.0	0	139.1578907	139.2577948	0.09990410000000001
112409	100	126	stimuli\movNat\waves\mn_waves08.jpg              	1	2	1	mn_waves08.jpg       	movNat   	3	waves     	38	waves08     	387	not_alive	0	moves	1	natural 	1	n	0	0    	 	0.0	0	139.30788069999997	139.40778	0.09989930000000001
112559	100	127	stimuli\nonmovNat\rock\nmn_rock06.jpg            	1	2	1	nmn_rock06.jpg       	nonmovNat	5	rock      	30	rock06      	305	not_alive	0	still	0	natural 	1	n	0	0    	 	0.0	0	139.45788159999998	139.5577767	0.0998951
112709	100	128	stimuli\plant2\moss\plant_moss07.jpg             	1	2	1	plant_moss07.jpg     	plant2   	7	moss      	25	moss07      	256	alive    	1	still	0	natural 	1	n	0	0    	 	0.0	0	139.6079007	139.70782659999998	0.0999258999999999
112859	100	129	stimuli\nonmovArt\clothespeg\nma_clothespeg10.jpg	1	2	1	nma_clothespeg10.jpg 	nonmovArt	4	clothespeg	8	clothespeg10	89	not_alive	0	still	0	artefact	0	n	0	0    	 	0.0	0	139.7579314	139.8578866	0.09995520000000001
113009	100	130	stimuli\movNat\hotspring\mn_hotspring08.jpg      	1	2	1	mn_hotspring08.jpg   	movNat   	3	hotspring 	21	hotspring08 	217	not_alive	0	moves	1	natural 	1	n	0	0    	 	0.0	0	139.907924	140.0077805	0.0998565
113159	100	131	stimuli\animals\cat\animal_cat08.jpg             	1	2	1	animal_cat08.jpg     	animals  	0	cat       	6	cat08       	67	alive    	1	moves	1	natural 	1	n	0	0    	 	0.0	0	140.05788059999998	140.1577821	0.0999015
113309	100	132	stimuli\nonmovNat\crystal\nmn_crystal07.jpg      	1	2	1	nmn_crystal07.jpg    	nonmovNat	5	crystal   	10	crystal07   	106	not_alive	0	still	0	natural 	1	n	0	0    	 	0.0	0	140.20786930000003	140.3077987	0.0999294
113459	100	133	stimuli\animals\dolphin\animal_dolphin06.jpg     	1	2	1	animal_dolphin06.jpg 	animals  	0	dolphin   	12	dolphin06   	125	alive    	1	moves	1	natural 	1	n	0	0    	 	0.0	0	140.3578678	140.4577742	0.0999063999999999
113609	100	134	stimuli\plant\flower\plant_flower02.jpg          	1	2	1	plant_flower02.jpg   	plant    	6	flower    	16	flower02    	161	alive    	1	still	0	natural 	1	n	0	0    	 	0.0	0	140.5078691	140.607765	0.0998959
113759	100	135	stimuli\movArt\boat\ma_boat08.jpg                	1	2	1	ma_boat08.jpg        	movArt   	2	boat      	2	boat08      	27	not_alive	0	moves	1	artefact	0	n	0	0    	 	0.0	0	140.6578686	140.75777419999997	0.0999056
113909	100	136	stimuli\movArt\bus\ma_bus09.jpg                  	1	2	1	ma_bus09.jpg         	movArt   	2	bus       	3	bus09       	38	not_alive	0	moves	1	artefact	0	n	0	0    	 	0.0	0	140.8078766	140.90777659999998	0.0999
114059	100	137	stimuli\plant2\fern\plant_fern06.jpg             	1	2	1	plant_fern06.jpg     	plant2   	7	fern      	14	fern06      	145	alive    	1	still	0	natural 	1	n	0	0    	 	0.0	0	140.95786850000002	141.057778	0.0999095
114209	100	138	stimuli\plant2\clover\plant_clover07.jpg         	1	2	1	plant_clover07.jpg   	plant2   	7	clover    	9	clover07    	96	alive    	1	still	0	natural 	1	n	0	0    	 	0.0	0	141.1078783	141.2077783	0.0999
114359	100	139	stimuli\nonmovArt\headphones\nma_headphones04.jpg	1	2	1	nma_headphones04.jpg 	nonmovArt	4	headphones	18	headphones04	183	not_alive	0	still	0	artefact	0	n	0	0    	 	0.0	0	141.2578636	141.3577856	0.099922
114509	100	140	stimuli\plant\cactus\plant_cactus07.jpg          	1	2	1	plant_cactus07.jpg   	plant    	6	cactus    	4	cactus07    	46	alive    	1	still	0	natural 	1	n	0	0    	 	0.0	0	141.40786640000002	141.5077746	0.0999082
114659	100	141	stimuli\nonmovArt\mug\nma_mug01.jpg              	1	2	1	nma_mug01.jpg        	nonmovArt	4	mug       	26	mug01       	260	not_alive	0	still	0	artefact	0	n	0	0    	 	0.0	0	141.55796180000002	141.65796699999999	0.1000052
114809	100	142	stimuli\nonmovNat\shell\nmn_shell10.jpg          	1	2	1	nmn_shell10.jpg      	nonmovNat	5	shell     	32	shell10     	329	not_alive	0	still	0	natural 	1	n	0	0    	 	0.0	0	141.7078778	141.8077554	0.09987760000000001
114959	100	143	stimuli\plant\cactus\plant_cactus06.jpg          	1	2	1	plant_cactus06.jpg   	plant    	6	cactus    	4	cactus06    	45	alive    	1	still	0	natural 	1	n	0	0    	 	0.0	0	141.857867	141.95776809999998	0.0999011
115109	100	144	stimuli\plant2\clover\plant_clover04.jpg         	1	2	1	plant_clover04.jpg   	plant2   	7	clover    	9	clover04    	93	alive    	1	still	0	natural 	1	n	0	0    	 	0.0	0	142.00786730000002	142.1077501	0.0998828
115259	100	145	stimuli\animals\cat\animal_cat05.jpg             	1	2	1	animal_cat05.jpg     	animals  	0	cat       	6	cat05       	64	alive    	1	moves	1	natural 	1	n	0	0    	 	0.0	0	142.15785480000002	142.2577436	0.0998888
115409	100	146	stimuli\nonmovArt\bench\nma_bench01.jpg          	1	2	1	nma_bench01.jpg      	nonmovArt	4	bench     	1	bench01     	10	not_alive	0	still	0	artefact	0	n	0	0    	 	0.0	0	142.3077315	142.4077543	0.10002280000000001
115559	100	147	stimuli\plant2\lemontree\plant_lemontree02.jpg   	1	2	1	plant_lemontree02.jpg	plant2   	7	lemontree 	22	lemontree02 	221	alive    	1	still	0	natural 	1	n	0	0    	 	0.0	0	142.4578908	142.5577844	0.0998936
115709	100	148	stimuli\movNat\waves\mn_waves09.jpg              	1	2	1	mn_waves09.jpg       	movNat   	3	waves     	38	waves09     	388	not_alive	0	moves	1	natural 	1	n	0	0    	 	0.0	0	142.607854	142.70776469999998	0.0999106999999999
115859	100	149	stimuli\nonmovNat\sand\nmn_sand01.jpg            	1	2	1	nmn_sand01.jpg       	nonmovNat	5	sand      	31	sand01      	310	not_alive	0	still	0	natural 	1	n	0	0    	 	0.0	0	142.75785459999997	142.8577896	0.099935
116009	100	150	stimuli\animals\eagle\animal_eagle08.jpg         	1	2	1	animal_eagle08.jpg   	animals  	0	eagle     	13	eagle08     	137	alive    	1	moves	1	natural 	1	n	0	0    	 	0.0	0	142.9078595	143.00776519999997	0.0999057
116159	100	151	stimuli\plant2\palmtree\plant_palmtree09.jpg     	1	2	1	plant_palmtree09.jpg 	plant2   	7	palmtree  	27	palmtree09  	278	alive    	1	still	0	natural 	1	n	0	0    	 	0.0	0	143.0578581	143.15778730000002	0.0999292
116309	100	152	stimuli\nonmovArt\lock\nma_lock09.jpg            	1	2	1	nma_lock09.jpg       	nonmovArt	4	lock      	24	lock09      	248	not_alive	0	still	0	artefact	0	n	0	0    	 	0.0	0	143.2078716	143.3077207	0.09984910000000001
116459	100	153	stimuli\nonmovArt\lock\nma_lock03.jpg            	1	2	1	nma_lock03.jpg       	nonmovArt	4	lock      	24	lock03      	242	not_alive	0	still	0	artefact	0	n	0	0    	 	0.0	0	143.3579365	143.45781499999998	0.0998785
116609	100	154	stimuli\plant\cactus\plant_cactus06.jpg          	1	2	1	plant_cactus06.jpg   	plant    	6	cactus    	4	cactus06    	45	alive    	1	still	0	natural 	1	n	0	0    	 	0.0	0	143.5079226	143.60774890000002	0.0998263
116759	100	155	stimuli\nonmovArt\headphones\nma_headphones04.jpg	1	2	1	nma_headphones04.jpg 	nonmovArt	4	headphones	18	headphones04	183	not_alive	0	still	0	artefact	0	n	0	0    	 	0.0	0	143.6578622	143.7577686	0.0999063999999999
116909	100	156	stimuli\nonmovArt\clothespeg\nma_clothespeg04.jpg	1	2	1	nma_clothespeg04.jpg 	nonmovArt	4	clothespeg	8	clothespeg04	83	not_alive	0	still	0	artefact	0	n	0	0    	 	0.0	0	143.8078406	143.9077388	0.0998981999999999
117059	100	157	stimuli\plant2\palmtree\plant_palmtree08.jpg     	1	2	1	plant_palmtree08.jpg 	plant2   	7	palmtree  	27	palmtree08  	277	alive    	1	still	0	natural 	1	n	0	0    	 	0.0	0	143.9578759	144.0577594	0.0998835
117209	100	158	stimuli\nonmovNat\crystal\nmn_crystal05.jpg      	1	2	1	nmn_crystal05.jpg    	nonmovNat	5	crystal   	10	crystal05   	104	not_alive	0	still	0	natural 	1	n	0	0    	 	0.0	0	144.10783930000002	144.2077862	0.0999468999999999
117359	100	159	stimuli\animals\dolphin\animal_dolphin09.jpg     	1	2	1	animal_dolphin09.jpg 	animals  	0	dolphin   	12	dolphin09   	128	alive    	1	moves	1	natural 	1	n	0	0    	 	0.0	0	144.2578514	144.35774890000002	0.0998975
122258	100	160	stimuli\nonmovNat\shell\nmn_shell05.jpg          	1	3	1	nmn_shell05.jpg      	nonmovNat	5	shell     	32	shell05     	324	not_alive	0	still	0	natural 	1	n	0	0    	 	0.0	0	149.1569345	149.2569179	0.0999834
122408	100	161	stimuli\movArt\bus\ma_bus01.jpg                  	1	3	1	ma_bus01.jpg         	movArt   	2	bus       	3	bus01       	30	not_alive	0	moves	1	artefact	0	n	0	0    	 	0.0	0	149.3069266	149.40691759999999	0.099991
122558	100	162	stimuli\movArt\boat\ma_boat06.jpg                	1	3	1	ma_boat06.jpg        	movArt   	2	boat      	2	boat06      	25	not_alive	0	moves	1	artefact	0	n	0	0    	 	0.0	0	149.4569251	149.5569155	0.0999904
122708	100	163	stimuli\movNat\hotspring\mn_hotspring07.jpg      	1	3	1	mn_hotspring07.jpg   	movNat   	3	hotspring 	21	hotspring07 	216	not_alive	0	moves	1	natural 	1	n	0	0    	 	0.0	0	149.6069243	149.70691259999998	0.0999883
122858	100	164	stimuli\plant2\clover\plant_clover01.jpg         	1	3	1	plant_clover01.jpg   	plant2   	7	clover    	9	clover01    	90	alive    	1	still	0	natural 	1	n	0	0    	 	0.0	0	149.7569242	149.8569106	0.0999863999999999
123008	100	165	stimuli\movNat\fire\mn_fire02.jpg                	1	3	1	mn_fire02.jpg        	movNat   	3	fire      	15	fire02      	151	not_alive	0	moves	1	natural 	1	n	0	0    	 	0.0	0	149.9069188	150.00691	0.0999911999999999
123158	100	166	stimuli\movArt\bus\ma_bus02.jpg                  	1	3	1	ma_bus02.jpg         	movArt   	2	bus       	3	bus02       	31	not_alive	0	moves	1	artefact	0	n	0	0    	 	0.0	0	150.05692	150.15690930000002	0.0999893
123308	100	167	stimuli\animals2\bee\animal_bee03.jpg            	1	3	1	animal_bee03.jpg     	animals2 	1	bee       	0	bee03       	2	alive    	1	moves	1	natural 	1	n	0	0    	 	0.0	0	150.206917	150.3069058	0.0999888
123458	100	168	stimuli\nonmovNat\shell\nmn_shell01.jpg          	1	3	1	nmn_shell01.jpg      	nonmovNat	5	shell     	32	shell01     	320	not_alive	0	still	0	natural 	1	n	0	0    	 	0.0	0	150.3569185	150.456908	0.0999895
123608	100	169	stimuli\animals2\lemur\animal_lemur02.jpg        	1	3	1	animal_lemur02.jpg   	animals2 	1	lemur     	23	lemur02     	231	alive    	1	moves	1	natural 	1	n	0	0    	 	0.0	0	150.5069159	150.60690259999998	0.0999867
123758	100	170	stimuli\animals\eagle\animal_eagle01.jpg         	1	3	1	animal_eagle01.jpg   	animals  	0	eagle     	13	eagle01     	130	alive    	1	moves	1	natural 	1	n	0	0    	 	0.0	0	150.6569131	150.7568997	0.09998660000000001
123908	100	171	stimuli\animals2\lemur\animal_lemur08.jpg        	1	3	1	animal_lemur08.jpg   	animals2 	1	lemur     	23	lemur08     	237	alive    	1	moves	1	natural 	1	n	0	0    	 	0.0	0	150.8069102	150.9068987	0.0999885
124058	100	172	stimuli\movNat\waterfall\mn_waterfall09.jpg      	1	3	1	mn_waterfall09.jpg   	movNat   	3	waterfall 	37	waterfall09 	378	not_alive	0	moves	1	natural 	1	n	0	0    	 	0.0	0	150.9569094	151.0569004	0.099991
124208	100	173	stimuli\movNat\waterfall\mn_waterfall07.jpg      	1	3	1	mn_waterfall07.jpg   	movNat   	3	waterfall 	37	waterfall07 	376	not_alive	0	moves	1	natural 	1	n	0	0    	 	0.0	0	151.106908	151.20689850000002	0.0999905
124358	100	174	stimuli\animals2\bee\animal_bee05.jpg            	1	3	1	animal_bee05.jpg     	animals2 	1	bee       	0	bee05       	4	alive    	1	moves	1	natural 	1	n	0	0    	 	0.0	0	151.25690569999998	151.3568954	0.0999896999999999
124508	100	175	stimuli\movArt\car\ma_car03.jpg                  	1	3	1	ma_car03.jpg         	movArt   	2	car       	5	car03       	52	not_alive	0	moves	1	artefact	0	n	0	0    	 	0.0	0	151.4069043	151.50689440000002	0.09999010000000001
124658	100	176	stimuli\plant2\lemontree\plant_lemontree09.jpg   	1	3	1	plant_lemontree09.jpg	plant2   	7	lemontree 	22	lemontree09 	228	alive    	1	still	0	natural 	1	n	0	0    	 	0.0	0	151.55690080000002	151.6568919	0.0999911
124808	100	177	stimuli\animals\dog\animal_dog06.jpg             	1	3	1	animal_dog06.jpg     	animals  	0	dog       	11	dog06       	115	alive    	1	moves	1	natural 	1	n	0	0    	 	0.0	0	151.7069009	151.80688999999998	0.09998910000000001
124958	100	178	stimuli\plant2\fern\plant_fern05.jpg             	1	3	1	plant_fern05.jpg     	plant2   	7	fern      	14	fern05      	144	alive    	1	still	0	natural 	1	n	0	0    	 	0.0	0	151.8568989	151.95689219999997	0.0999933
125108	100	179	stimuli\animals2\tiger\animal_tiger07.jpg        	1	3	1	animal_tiger07.jpg   	animals2 	1	tiger     	33	tiger07     	336	alive    	1	moves	1	natural 	1	n	0	0    	 	0.0	0	152.00689880000002	152.1068876	0.0999888
125258	100	180	stimuli\animals2\whale\animal_whale04.jpg        	1	3	1	animal_whale04.jpg   	animals2 	1	whale     	39	whale04     	393	alive    	1	moves	1	natural 	1	n	0	0    	 	0.0	0	152.15690680000003	152.2569085	0.1000017
125408	100	181	stimuli\movNat\fire\mn_fire01.jpg                	1	3	1	mn_fire01.jpg        	movNat   	3	fire      	15	fire01      	150	not_alive	0	moves	1	natural 	1	n	0	0    	 	0.0	0	152.3068947	152.40688740000002	0.0999927
125558	100	182	stimuli\animals2\pigeon\animal_pigeon09.jpg      	1	3	1	animal_pigeon09.jpg  	animals2 	1	pigeon    	28	pigeon09    	288	alive    	1	moves	1	natural 	1	n	0	0    	 	0.0	0	152.45689380000002	152.5568836	0.0999898
125708	100	183	stimuli\movNat\fire\mn_fire09.jpg                	1	3	1	mn_fire09.jpg        	movNat   	3	fire      	15	fire09      	158	not_alive	0	moves	1	natural 	1	n	0	0    	 	0.0	0	152.60689340000002	152.7068815	0.09998810000000001
125858	100	184	stimuli\animals2\whale\animal_whale06.jpg        	1	3	1	animal_whale06.jpg   	animals2 	1	whale     	39	whale06     	395	alive    	1	moves	1	natural 	1	n	0	0    	 	0.0	0	152.75689069999999	152.8568768	0.09998610000000001
126008	100	185	stimuli\plant\vine\plant_vine09.jpg              	1	3	1	plant_vine09.jpg     	plant    	6	vine      	36	vine09      	368	alive    	1	still	0	natural 	1	n	0	0    	 	0.0	0	152.9068905	153.0068788	0.0999883
126158	100	186	stimuli\animals\horse\animal_horse01.jpg         	1	3	1	animal_horse01.jpg   	animals  	0	horse     	20	horse01     	200	alive    	1	moves	1	natural 	1	n	0	0    	 	0.0	0	153.0568872	153.15687769999997	0.0999905
126308	100	187	stimuli\nonmovNat\rock\nmn_rock05.jpg            	1	3	1	nmn_rock05.jpg       	nonmovNat	5	rock      	30	rock05      	304	not_alive	0	still	0	natural 	1	n	0	0    	 	0.0	0	153.2068861	153.3068756	0.0999895
126458	100	188	stimuli\nonmovArt\bench\nma_bench04.jpg          	1	3	1	nma_bench04.jpg      	nonmovArt	4	bench     	1	bench04     	13	not_alive	0	still	0	artefact	0	n	0	0    	 	0.0	0	153.3568835	153.4568716	0.09998810000000001
126608	100	189	stimuli\plant2\moss\plant_moss09.jpg             	1	3	1	plant_moss09.jpg     	plant2   	7	moss      	25	moss09      	258	alive    	1	still	0	natural 	1	n	0	0    	 	0.0	0	153.506881	153.6068725	0.0999915
126758	100	190	stimuli\movNat\waves\mn_waves10.jpg              	1	3	1	mn_waves10.jpg       	movNat   	3	waves     	38	waves10     	389	not_alive	0	moves	1	natural 	1	n	0	0    	 	0.0	0	153.6568833	153.75687119999998	0.0999878999999999
126908	100	191	stimuli\nonmovNat\rock\nmn_rock03.jpg            	1	3	1	nmn_rock03.jpg       	nonmovNat	5	rock      	30	rock03      	302	not_alive	0	still	0	natural 	1	n	1	0    	 	0.0	0	153.80687659999998	153.9068784	0.1000018
127058	100	192	stimuli\movNat\river\mn_river04.jpg              	1	3	1	mn_river04.jpg       	movNat   	3	river     	29	river04     	293	not_alive	0	moves	1	natural 	1	n	0	0    	 	0.0	0	153.9568655	154.0568685	0.100003
127208	100	193	stimuli\plant2\moss\plant_moss08.jpg             	1	3	1	plant_moss08.jpg     	plant2   	7	moss      	25	moss08      	257	alive    	1	still	0	natural 	1	n	0	1    	f	0.39198259999999996	1	154.1068764	154.2068633	0.0999868999999999
127358	100	194	stimuli\nonmovNat\crystal\nmn_crystal06.jpg      	1	3	1	nmn_crystal06.jpg    	nonmovNat	5	crystal   	10	crystal06   	105	not_alive	0	still	0	natural 	1	n	0	0    	 	0.0	0	154.2568771	154.3568626	0.0999855
127508	100	195	stimuli\nonmovArt\headphones\nma_headphones02.jpg	1	3	1	nma_headphones02.jpg 	nonmovArt	4	headphones	18	headphones02	181	not_alive	0	still	0	artefact	0	n	0	0    	 	0.0	0	154.40687549999998	154.5068618	0.0999863
127658	100	196	stimuli\nonmovNat\cliff\nmn_cliff07.jpg          	1	3	1	nmn_cliff07.jpg      	nonmovNat	5	cliff     	7	cliff07     	76	not_alive	0	still	0	natural 	1	n	0	0    	 	0.0	0	154.5568725	154.65686110000001	0.09998860000000001
127808	100	197	stimuli\nonmovNat\cliff\nmn_cliff04.jpg          	1	3	1	nmn_cliff04.jpg      	nonmovNat	5	cliff     	7	cliff04     	73	not_alive	0	still	0	natural 	1	n	0	0    	 	0.0	0	154.70686990000002	154.80685830000002	0.0999883999999999
127958	100	198	stimuli\nonmovArt\bench\nma_bench03.jpg          	1	3	1	nma_bench03.jpg      	nonmovArt	4	bench     	1	bench03     	12	not_alive	0	still	0	artefact	0	n	0	0    	 	0.0	0	154.8568673	154.95688080000002	0.1000135
128108	100	199	stimuli\movArt\helicopter\ma_helicopter02.jpg    	1	3	1	ma_helicopter02.jpg  	movArt   	2	helicopter	19	helicopter02	191	not_alive	0	moves	1	artefact	0	n	0	0    	 	0.0	0	155.00687630000002	155.10685680000003	0.0999805
128258	100	200	stimuli\animals2\tiger\animal_tiger06.jpg        	1	3	1	animal_tiger06.jpg   	animals2 	1	tiger     	33	tiger06     	335	alive    	1	moves	1	natural 	1	n	0	0    	 	0.0	0	155.1568649	155.25685430000001	0.0999893999999999
128408	100	201	stimuli\nonmovNat\sand\nmn_sand08.jpg            	1	3	1	nmn_sand08.jpg       	nonmovNat	5	sand      	31	sand08      	317	not_alive	0	still	0	natural 	1	n	0	0    	 	0.0	0	155.3068628	155.4068399	0.09997710000000001
128558	100	202	stimuli\animals\horse\animal_horse08.jpg         	1	3	1	animal_horse08.jpg   	animals  	0	horse     	20	horse08     	207	alive    	1	moves	1	natural 	1	n	0	0    	 	0.0	0	155.45685559999998	155.5568369	0.0999813
128708	100	203	stimuli\movArt\helicopter\ma_helicopter10.jpg    	1	3	1	ma_helicopter10.jpg  	movArt   	2	helicopter	19	helicopter10	199	not_alive	0	moves	1	artefact	0	n	0	0    	 	0.0	0	155.60684890000002	155.70684219999998	0.0999933
128858	100	204	stimuli\plant\grass\plant_grass06.jpg            	1	3	1	plant_grass06.jpg    	plant    	6	grass     	17	grass06     	175	alive    	1	still	0	natural 	1	n	0	0    	 	0.0	0	155.75687290000002	155.85684880000002	0.0999758999999999
129008	100	205	stimuli\movArt\boat\ma_boat04.jpg                	1	3	1	ma_boat04.jpg        	movArt   	2	boat      	2	boat04      	23	not_alive	0	moves	1	artefact	0	n	0	0    	 	0.0	0	155.90685019999998	156.0068319	0.0999817
129158	100	206	stimuli\movArt\train\ma_train07.jpg              	1	3	1	ma_train07.jpg       	movArt   	2	train     	34	train07     	346	not_alive	0	moves	1	artefact	0	n	0	0    	 	0.0	0	156.0568482	156.15683769999998	0.0999895
129308	100	207	stimuli\movArt\helicopter\ma_helicopter09.jpg    	1	3	1	ma_helicopter09.jpg  	movArt   	2	helicopter	19	helicopter09	198	not_alive	0	moves	1	artefact	0	n	0	0    	 	0.0	0	156.20684719999997	156.3068291	0.0999819
129458	100	208	stimuli\plant\grass\plant_grass01.jpg            	1	3	1	plant_grass01.jpg    	plant    	6	grass     	17	grass01     	170	alive    	1	still	0	natural 	1	n	0	0    	 	0.0	0	156.3568382	156.4568355	0.09999730000000001
129608	100	209	stimuli\animals2\lemur\animal_lemur05.jpg        	1	3	1	animal_lemur05.jpg   	animals2 	1	lemur     	23	lemur05     	234	alive    	1	moves	1	natural 	1	n	0	0    	 	0.0	0	156.50683700000002	156.6068262	0.0999892
129758	100	210	stimuli\plant\flower\plant_flower05.jpg          	1	3	1	plant_flower05.jpg   	plant    	6	flower    	16	flower05    	164	alive    	1	still	0	natural 	1	n	0	0    	 	0.0	0	156.6568416	156.7568229	0.0999813
129908	100	211	stimuli\animals\eagle\animal_eagle05.jpg         	1	3	1	animal_eagle05.jpg   	animals  	0	eagle     	13	eagle05     	134	alive    	1	moves	1	natural 	1	n	0	0    	 	0.0	0	156.8068349	156.9068225	0.09998760000000001
130058	100	212	stimuli\animals\cat\animal_cat09.jpg             	1	3	1	animal_cat09.jpg     	animals  	0	cat       	6	cat09       	68	alive    	1	moves	1	natural 	1	n	0	0    	 	0.0	0	156.9568386	157.0568262	0.09998760000000001
130208	100	213	stimuli\nonmovArt\mug\nma_mug02.jpg              	1	3	1	nma_mug02.jpg        	nonmovArt	4	mug       	26	mug02       	261	not_alive	0	still	0	artefact	0	n	0	0    	 	0.0	0	157.1068292	157.2068199	0.0999906999999999
130358	100	214	stimuli\movNat\hotspring\mn_hotspring08.jpg      	1	3	1	mn_hotspring08.jpg   	movNat   	3	hotspring 	21	hotspring08 	217	not_alive	0	moves	1	natural 	1	n	0	0    	 	0.0	0	157.2568301	157.35681680000002	0.0999867
130508	100	215	stimuli\nonmovNat\sand\nmn_sand08.jpg            	1	3	1	nmn_sand08.jpg       	nonmovNat	5	sand      	31	sand08      	317	not_alive	0	still	0	natural 	1	n	0	0    	 	0.0	0	157.4068273	157.5068264	0.09999910000000001
130658	100	216	stimuli\animals\dolphin\animal_dolphin02.jpg     	1	3	1	animal_dolphin02.jpg 	animals  	0	dolphin   	12	dolphin02   	121	alive    	1	moves	1	natural 	1	n	0	0    	 	0.0	0	157.5568467	157.65682130000002	0.09997460000000001
130808	100	217	stimuli\nonmovNat\cliff\nmn_cliff05.jpg          	1	3	1	nmn_cliff05.jpg      	nonmovNat	5	cliff     	7	cliff05     	74	not_alive	0	still	0	natural 	1	n	0	0    	 	0.0	0	157.70682299999999	157.8068122	0.0999892
130958	100	218	stimuli\movNat\river\mn_river02.jpg              	1	3	1	mn_river02.jpg       	movNat   	3	river     	29	river02     	291	not_alive	0	moves	1	natural 	1	n	0	0    	 	0.0	0	157.85682590000002	157.9568137	0.0999878
131108	100	219	stimuli\plant\vine\plant_vine02.jpg              	1	3	1	plant_vine02.jpg     	plant    	6	vine      	36	vine02      	361	alive    	1	still	0	natural 	1	n	1	0    	 	0.0	0	158.0068224	158.1068147	0.0999923
131258	100	220	stimuli\animals2\pigeon\animal_pigeon10.jpg      	1	3	1	animal_pigeon10.jpg  	animals2 	1	pigeon    	28	pigeon10    	289	alive    	1	moves	1	natural 	1	n	0	0    	 	0.0	0	158.1568197	158.2568092	0.0999895
131408	100	221	stimuli\plant\tree\plant_tree02.jpg              	1	3	1	plant_tree02.jpg     	plant    	6	tree      	35	tree02      	351	alive    	1	still	0	natural 	1	n	0	1    	f	0.2921798	1	158.30681950000002	158.4068081	0.09998860000000001
131558	100	222	stimuli\animals2\bee\animal_bee09.jpg            	1	3	1	animal_bee09.jpg     	animals2 	1	bee       	0	bee09       	8	alive    	1	moves	1	natural 	1	n	0	0    	 	0.0	0	158.4568173	158.5568147	0.0999974
131708	100	223	stimuli\plant\tree\plant_tree02.jpg              	1	3	1	plant_tree02.jpg     	plant    	6	tree      	35	tree02      	351	alive    	1	still	0	natural 	1	n	0	0    	 	0.0	0	158.6068186	158.7068052	0.09998660000000001
131858	100	224	stimuli\plant\flower\plant_flower06.jpg          	1	3	1	plant_flower06.jpg   	plant    	6	flower    	16	flower06    	165	alive    	1	still	0	natural 	1	n	0	0    	 	0.0	0	158.7568149	158.8568077	0.0999927999999999
132008	100	225	stimuli\plant2\fern\plant_fern04.jpg             	1	3	1	plant_fern04.jpg     	plant2   	7	fern      	14	fern04      	143	alive    	1	still	0	natural 	1	n	0	0    	 	0.0	0	158.90681740000002	159.00680630000002	0.0999888999999999
132158	100	226	stimuli\plant2\palmtree\plant_palmtree04.jpg     	1	3	1	plant_palmtree04.jpg 	plant2   	7	palmtree  	27	palmtree04  	273	alive    	1	still	0	natural 	1	n	0	0    	 	0.0	0	159.0568146	159.1568006	0.099986
132308	100	227	stimuli\animals\horse\animal_horse06.jpg         	1	3	1	animal_horse06.jpg   	animals  	0	horse     	20	horse06     	205	alive    	1	moves	1	natural 	1	n	0	0    	 	0.0	0	159.20680990000002	159.3067917	0.0999818
132458	100	228	stimuli\animals2\pigeon\animal_pigeon05.jpg      	1	3	1	animal_pigeon05.jpg  	animals2 	1	pigeon    	28	pigeon05    	284	alive    	1	moves	1	natural 	1	n	0	0    	 	0.0	0	159.356827	159.45679769999998	0.0999707
132608	100	229	stimuli\movArt\car\ma_car04.jpg                  	1	3	1	ma_car04.jpg         	movArt   	2	car       	5	car04       	53	not_alive	0	moves	1	artefact	0	n	0	0    	 	0.0	0	159.50680400000002	159.6068009	0.0999969
132758	100	230	stimuli\plant\tree\plant_tree05.jpg              	1	3	1	plant_tree05.jpg     	plant    	6	tree      	35	tree05      	354	alive    	1	still	0	natural 	1	n	0	0    	 	0.0	0	159.65680469999998	159.7577862	0.1009815
132909	100	231	stimuli\movNat\waterfall\mn_waterfall08.jpg      	1	3	1	mn_waterfall08.jpg   	movNat   	3	waterfall 	37	waterfall08 	377	not_alive	0	moves	1	natural 	1	n	0	0    	 	0.0	0	159.8076993	159.9075907	0.0998914
133059	100	232	stimuli\movArt\car\ma_car02.jpg                  	1	3	1	ma_car02.jpg         	movArt   	2	car       	5	car02       	51	not_alive	0	moves	1	artefact	0	n	0	0    	 	0.0	0	159.9576916	160.05760769999998	0.09991610000000001
133209	100	233	stimuli\movNat\river\mn_river04.jpg              	1	3	1	mn_river04.jpg       	movNat   	3	river     	29	river04     	293	not_alive	0	moves	1	natural 	1	n	0	0    	 	0.0	0	160.10770019999998	160.20756550000002	0.0998653
133359	100	234	stimuli\movArt\train\ma_train10.jpg              	1	3	1	ma_train10.jpg       	movArt   	2	train     	34	train10     	349	not_alive	0	moves	1	artefact	0	n	0	0    	 	0.0	0	160.2576778	160.3575844	0.0999066
133509	100	235	stimuli\nonmovArt\lock\nma_lock04.jpg            	1	3	1	nma_lock04.jpg       	nonmovArt	4	lock      	24	lock04      	243	not_alive	0	still	0	artefact	0	n	0	0    	 	0.0	0	160.4076736	160.50760280000003	0.0999292
133659	100	236	stimuli\animals\dog\animal_dog04.jpg             	1	3	1	animal_dog04.jpg     	animals  	0	dog       	11	dog04       	113	alive    	1	moves	1	natural 	1	n	0	0    	 	0.0	0	160.5576699	160.65759509999998	0.0999251999999999
133809	100	237	stimuli\plant2\lemontree\plant_lemontree02.jpg   	1	3	1	plant_lemontree02.jpg	plant2   	7	lemontree 	22	lemontree02 	221	alive    	1	still	0	natural 	1	n	0	0    	 	0.0	0	160.70767030000002	160.8075779	0.0999076
133959	100	238	stimuli\plant\grass\plant_grass06.jpg            	1	3	1	plant_grass06.jpg    	plant    	6	grass     	17	grass06     	175	alive    	1	still	0	natural 	1	n	0	0    	 	0.0	0	160.857669	160.95756459999998	0.0998956
134109	100	239	stimuli\animals2\whale\animal_whale04.jpg        	1	3	1	animal_whale04.jpg   	animals2 	1	whale     	39	whale04     	393	alive    	1	moves	1	natural 	1	n	0	0    	 	0.0	0	161.0077006	161.10766850000002	0.0999679
138125	100	240	stimuli\plant2\palmtree\plant_palmtree04.jpg     	1	4	1	plant_palmtree04.jpg 	plant2   	7	palmtree  	27	palmtree04  	273	alive    	1	still	0	natural 	1	n	0	0    	 	0.0	0	165.0243053	165.1241781	0.09987280000000001
138275	100	241	stimuli\animals\horse\animal_horse04.jpg         	1	4	1	animal_horse04.jpg   	animals  	0	horse     	20	horse04     	203	alive    	1	moves	1	natural 	1	n	0	0    	 	0.0	0	165.1742754	165.2741855	0.09991010000000002
138425	100	242	stimuli\plant2\lemontree\plant_lemontree10.jpg   	1	4	1	plant_lemontree10.jpg	plant2   	7	lemontree 	22	lemontree10 	229	alive    	1	still	0	natural 	1	n	0	0    	 	0.0	0	165.3242925	165.42438909999998	0.1000966
138575	100	243	stimuli\nonmovNat\cliff\nmn_cliff06.jpg          	1	4	1	nmn_cliff06.jpg      	nonmovNat	5	cliff     	7	cliff06     	75	not_alive	0	still	0	natural 	1	n	0	0    	 	0.0	0	165.47427219999997	165.5741957	0.0999235
138725	100	244	stimuli\animals2\whale\animal_whale10.jpg        	1	4	1	animal_whale10.jpg   	animals2 	1	whale     	39	whale10     	399	alive    	1	moves	1	natural 	1	n	0	0    	 	0.0	0	165.6242554	165.7241766	0.0999212
138875	100	245	stimuli\nonmovArt\clothespeg\nma_clothespeg07.jpg	1	4	1	nma_clothespeg07.jpg 	nonmovArt	4	clothespeg	8	clothespeg07	86	not_alive	0	still	0	artefact	0	n	0	0    	 	0.0	0	165.77428419999998	165.8741794	0.0998952
139025	100	246	stimuli\nonmovNat\rock\nmn_rock08.jpg            	1	4	1	nmn_rock08.jpg       	nonmovNat	5	rock      	30	rock08      	307	not_alive	0	still	0	natural 	1	n	0	0    	 	0.0	0	165.92427859999998	166.0241761	0.0998975
139175	100	247	stimuli\animals\dog\animal_dog01.jpg             	1	4	1	animal_dog01.jpg     	animals  	0	dog       	11	dog01       	110	alive    	1	moves	1	natural 	1	n	0	0    	 	0.0	0	166.0742917	166.1741731	0.0998814
139325	100	248	stimuli\plant\flower\plant_flower07.jpg          	1	4	1	plant_flower07.jpg   	plant    	6	flower    	16	flower07    	166	alive    	1	still	0	natural 	1	n	0	0    	 	0.0	0	166.22427390000001	166.3241696	0.0998957
139475	100	249	stimuli\animals2\bee\animal_bee06.jpg            	1	4	1	animal_bee06.jpg     	animals2 	1	bee       	0	bee06       	5	alive    	1	moves	1	natural 	1	n	0	0    	 	0.0	0	166.3743335	166.47416619999998	0.0998327
139625	100	250	stimuli\movNat\hotspring\mn_hotspring05.jpg      	1	4	1	mn_hotspring05.jpg   	movNat   	3	hotspring 	21	hotspring05 	214	not_alive	0	moves	1	natural 	1	n	0	0    	 	0.0	0	166.5242606	166.6241696	0.099909
139775	100	251	stimuli\nonmovNat\cliff\nmn_cliff01.jpg          	1	4	1	nmn_cliff01.jpg      	nonmovNat	5	cliff     	7	cliff01     	70	not_alive	0	still	0	natural 	1	n	1	0    	 	0.0	0	166.67426909999998	166.77417169999998	0.09990260000000001
139925	100	252	stimuli\plant\flower\plant_flower08.jpg          	1	4	1	plant_flower08.jpg   	plant    	6	flower    	16	flower08    	167	alive    	1	still	0	natural 	1	n	0	0    	 	0.0	0	166.8242764	166.92416930000002	0.0998928999999999
140075	100	253	stimuli\nonmovNat\rock\nmn_rock08.jpg            	1	4	1	nmn_rock08.jpg       	nonmovNat	5	rock      	30	rock08      	307	not_alive	0	still	0	natural 	1	n	0	1    	f	0.29203090000000004	1	166.97427019999998	167.0741629	0.0998927
140225	100	254	stimuli\nonmovArt\mug\nma_mug05.jpg              	1	4	1	nma_mug05.jpg        	nonmovArt	4	mug       	26	mug05       	264	not_alive	0	still	0	artefact	0	n	0	0    	 	0.0	0	167.1242638	167.2241448	0.099881
140375	100	255	stimuli\animals2\whale\animal_whale08.jpg        	1	4	1	animal_whale08.jpg   	animals2 	1	whale     	39	whale08     	397	alive    	1	moves	1	natural 	1	n	0	0    	 	0.0	0	167.2742569	167.3741557	0.09989880000000001
140526	100	256	stimuli\animals2\pigeon\animal_pigeon01.jpg      	1	4	1	animal_pigeon01.jpg  	animals2 	1	pigeon    	28	pigeon01    	280	alive    	1	moves	1	natural 	1	n	0	0    	 	0.0	0	167.42461630000003	167.5241631	0.0995468
140675	100	257	stimuli\nonmovNat\crystal\nmn_crystal05.jpg      	1	4	1	nmn_crystal05.jpg    	nonmovNat	5	crystal   	10	crystal05   	104	not_alive	0	still	0	natural 	1	n	0	0    	 	0.0	0	167.574253	167.6741616	0.0999086
140825	100	258	stimuli\movArt\car\ma_car07.jpg                  	1	4	1	ma_car07.jpg         	movArt   	2	car       	5	car07       	56	not_alive	0	moves	1	artefact	0	n	0	0    	 	0.0	0	167.72425080000002	167.8241659	0.0999151
140975	100	259	stimuli\plant2\moss\plant_moss01.jpg             	1	4	1	plant_moss01.jpg     	plant2   	7	moss      	25	moss01      	250	alive    	1	still	0	natural 	1	n	0	0    	 	0.0	0	167.8742621	167.97419119999998	0.0999291
141125	100	260	stimuli\plant2\fern\plant_fern07.jpg             	1	4	1	plant_fern07.jpg     	plant2   	7	fern      	14	fern07      	146	alive    	1	still	0	natural 	1	n	0	0    	 	0.0	0	168.02424209999998	168.124175	0.0999328999999999
141275	100	261	stimuli\nonmovArt\headphones\nma_headphones08.jpg	1	4	1	nma_headphones08.jpg 	nonmovArt	4	headphones	18	headphones08	187	not_alive	0	still	0	artefact	0	n	0	0    	 	0.0	0	168.17438769999998	168.27417119999998	0.0997835
141425	100	262	stimuli\movNat\river\mn_river06.jpg              	1	4	1	mn_river06.jpg       	movNat   	3	river     	29	river06     	295	not_alive	0	moves	1	natural 	1	n	0	0    	 	0.0	0	168.3242618	168.4242071	0.0999453
141575	100	263	stimuli\nonmovArt\clothespeg\nma_clothespeg01.jpg	1	4	1	nma_clothespeg01.jpg 	nonmovArt	4	clothespeg	8	clothespeg01	80	not_alive	0	still	0	artefact	0	n	0	0    	 	0.0	0	168.4742615	168.5741495	0.099888
141725	100	264	stimuli\animals2\tiger\animal_tiger03.jpg        	1	4	1	animal_tiger03.jpg   	animals2 	1	tiger     	33	tiger03     	332	alive    	1	moves	1	natural 	1	n	0	0    	 	0.0	0	168.6242388	168.7241407	0.0999018999999999
141875	100	265	stimuli\animals2\tiger\animal_tiger02.jpg        	1	4	1	animal_tiger02.jpg   	animals2 	1	tiger     	33	tiger02     	331	alive    	1	moves	1	natural 	1	n	0	0    	 	0.0	0	168.7742491	168.8741331	0.099884
142025	100	266	stimuli\movArt\helicopter\ma_helicopter01.jpg    	1	4	1	ma_helicopter01.jpg  	movArt   	2	helicopter	19	helicopter01	190	not_alive	0	moves	1	artefact	0	n	1	0    	 	0.0	0	168.9242411	169.02415	0.0999089
142175	100	267	stimuli\plant\vine\plant_vine07.jpg              	1	4	1	plant_vine07.jpg     	plant    	6	vine      	36	vine07      	366	alive    	1	still	0	natural 	1	n	0	0    	 	0.0	0	169.07423899999998	169.1741439	0.0999048999999999
142325	100	268	stimuli\animals\cat\animal_cat03.jpg             	1	4	1	animal_cat03.jpg     	animals  	0	cat       	6	cat03       	62	alive    	1	moves	1	natural 	1	n	0	1    	f	0.3919997	1	169.2242548	169.3241323	0.0998775
142475	100	269	stimuli\movArt\boat\ma_boat06.jpg                	1	4	1	ma_boat06.jpg        	movArt   	2	boat      	2	boat06      	25	not_alive	0	moves	1	artefact	0	n	1	0    	 	0.0	0	169.3742358	169.47414740000002	0.0999116
142625	100	270	stimuli\nonmovArt\clothespeg\nma_clothespeg06.jpg	1	4	1	nma_clothespeg06.jpg 	nonmovArt	4	clothespeg	8	clothespeg06	85	not_alive	0	still	0	artefact	0	n	0	0    	 	0.0	0	169.5242486	169.6241458	0.0998971999999999
142775	100	271	stimuli\movNat\waterfall\mn_waterfall04.jpg      	1	4	1	mn_waterfall04.jpg   	movNat   	3	waterfall 	37	waterfall04 	373	not_alive	0	moves	1	natural 	1	n	1	0    	 	0.0	0	169.67424169999998	169.7741562	0.0999145
142925	100	272	stimuli\movArt\boat\ma_boat10.jpg                	1	4	1	ma_boat10.jpg        	movArt   	2	boat      	2	boat10      	29	not_alive	0	moves	1	artefact	0	n	0	1    	f	0.1420804	1	169.8242392	169.9241968	0.09995760000000001
143075	100	273	stimuli\movNat\hotspring\mn_hotspring05.jpg      	1	4	1	mn_hotspring05.jpg   	movNat   	3	hotspring 	21	hotspring05 	214	not_alive	0	moves	1	natural 	1	n	0	0    	 	0.0	0	169.9743109	170.0741423	0.0998314
143225	100	274	stimuli\animals2\tiger\animal_tiger09.jpg        	1	4	1	animal_tiger09.jpg   	animals2 	1	tiger     	33	tiger09     	338	alive    	1	moves	1	natural 	1	n	0	0    	 	0.0	0	170.12424030000003	170.224126	0.0998857
143375	100	275	stimuli\movArt\helicopter\ma_helicopter03.jpg    	1	4	1	ma_helicopter03.jpg  	movArt   	2	helicopter	19	helicopter03	192	not_alive	0	moves	1	artefact	0	n	0	0    	 	0.0	0	170.2742342	170.3741305	0.09989630000000001
143525	100	276	stimuli\plant\grass\plant_grass02.jpg            	1	4	1	plant_grass02.jpg    	plant    	6	grass     	17	grass02     	171	alive    	1	still	0	natural 	1	n	0	0    	 	0.0	0	170.42434419999998	170.52412890000002	0.0997847
143675	100	277	stimuli\movNat\waves\mn_waves03.jpg              	1	4	1	mn_waves03.jpg       	movNat   	3	waves     	38	waves03     	382	not_alive	0	moves	1	natural 	1	n	0	0    	 	0.0	0	170.57422350000002	170.6741288	0.0999053
143825	100	278	stimuli\animals2\pigeon\animal_pigeon02.jpg      	1	4	1	animal_pigeon02.jpg  	animals2 	1	pigeon    	28	pigeon02    	281	alive    	1	moves	1	natural 	1	n	0	0    	 	0.0	0	170.724224	170.8241193	0.0998952999999999
143975	100	279	stimuli\nonmovArt\bench\nma_bench02.jpg          	1	4	1	nma_bench02.jpg      	nonmovArt	4	bench     	1	bench02     	11	not_alive	0	still	0	artefact	0	n	0	0    	 	0.0	0	170.87422809999998	170.9741386	0.0999105
144125	100	280	stimuli\plant\cactus\plant_cactus01.jpg          	1	4	1	plant_cactus01.jpg   	plant    	6	cactus    	4	cactus01    	40	alive    	1	still	0	natural 	1	n	0	0    	 	0.0	0	171.024228	171.12412700000002	0.099899
144275	100	281	stimuli\nonmovNat\shell\nmn_shell09.jpg          	1	4	1	nmn_shell09.jpg      	nonmovNat	5	shell     	32	shell09     	328	not_alive	0	still	0	natural 	1	n	0	0    	 	0.0	0	171.1742299	171.27410840000002	0.0998785
144425	100	282	stimuli\movArt\car\ma_car03.jpg                  	1	4	1	ma_car03.jpg         	movArt   	2	car       	5	car03       	52	not_alive	0	moves	1	artefact	0	n	0	0    	 	0.0	0	171.3242091	171.4241044	0.0998952999999999
144575	100	283	stimuli\movArt\bus\ma_bus08.jpg                  	1	4	1	ma_bus08.jpg         	movArt   	2	bus       	3	bus08       	37	not_alive	0	moves	1	artefact	0	n	0	0    	 	0.0	0	171.474223	171.57413209999999	0.0999091
144725	100	284	stimuli\plant\grass\plant_grass09.jpg            	1	4	1	plant_grass09.jpg    	plant    	6	grass     	17	grass09     	178	alive    	1	still	0	natural 	1	n	0	0    	 	0.0	0	171.6242116	171.72418080000003	0.0999692
144875	100	285	stimuli\plant2\clover\plant_clover08.jpg         	1	4	1	plant_clover08.jpg   	plant2   	7	clover    	9	clover08    	97	alive    	1	still	0	natural 	1	n	0	0    	 	0.0	0	171.7742164	171.8741145	0.09989810000000002
145025	100	286	stimuli\movArt\bus\ma_bus10.jpg                  	1	4	1	ma_bus10.jpg         	movArt   	2	bus       	3	bus10       	39	not_alive	0	moves	1	artefact	0	n	0	0    	 	0.0	0	171.9242121	172.0241125	0.0999003999999999
145175	100	287	stimuli\plant2\palmtree\plant_palmtree10.jpg     	1	4	1	plant_palmtree10.jpg 	plant2   	7	palmtree  	27	palmtree10  	279	alive    	1	still	0	natural 	1	n	0	0    	 	0.0	0	172.0742174	172.1741051	0.0998877
145325	100	288	stimuli\animals2\pigeon\animal_pigeon05.jpg      	1	4	1	animal_pigeon05.jpg  	animals2 	1	pigeon    	28	pigeon05    	284	alive    	1	moves	1	natural 	1	n	0	0    	 	0.0	0	172.2241988	172.3241245	0.0999256999999999
145475	100	289	stimuli\plant\vine\plant_vine07.jpg              	1	4	1	plant_vine07.jpg     	plant    	6	vine      	36	vine07      	366	alive    	1	still	0	natural 	1	n	0	0    	 	0.0	0	172.3742257	172.4741129	0.0998872
145625	100	290	stimuli\movArt\helicopter\ma_helicopter04.jpg    	1	4	1	ma_helicopter04.jpg  	movArt   	2	helicopter	19	helicopter04	193	not_alive	0	moves	1	artefact	0	n	0	0    	 	0.0	0	172.52420080000002	172.6240991	0.09989830000000001
145775	100	291	stimuli\nonmovArt\headphones\nma_headphones03.jpg	1	4	1	nma_headphones03.jpg 	nonmovArt	4	headphones	18	headphones03	182	not_alive	0	still	0	artefact	0	n	0	0    	 	0.0	0	172.6742155	172.7741017	0.0998862
145925	100	292	stimuli\movArt\train\ma_train02.jpg              	1	4	1	ma_train02.jpg       	movArt   	2	train     	34	train02     	341	not_alive	0	moves	1	artefact	0	n	0	0    	 	0.0	0	172.8241976	172.9241045	0.0999068999999999
146075	100	293	stimuli\nonmovArt\mug\nma_mug06.jpg              	1	4	1	nma_mug06.jpg        	nonmovArt	4	mug       	26	mug06       	265	not_alive	0	still	0	artefact	0	n	0	0    	 	0.0	0	172.97420309999998	173.0741047	0.09990160000000001
146225	100	294	stimuli\plant2\lemontree\plant_lemontree10.jpg   	1	4	1	plant_lemontree10.jpg	plant2   	7	lemontree 	22	lemontree10 	229	alive    	1	still	0	natural 	1	n	0	0    	 	0.0	0	173.1242151	173.2241006	0.0998855
146375	100	295	stimuli\movArt\bus\ma_bus08.jpg                  	1	4	1	ma_bus08.jpg         	movArt   	2	bus       	3	bus08       	37	not_alive	0	moves	1	artefact	0	n	0	0    	 	0.0	0	173.274209	173.37409630000002	0.0998873
146525	100	296	stimuli\movNat\fire\mn_fire02.jpg                	1	4	1	mn_fire02.jpg        	movNat   	3	fire      	15	fire02      	151	not_alive	0	moves	1	natural 	1	n	0	0    	 	0.0	0	173.42433259999999	173.52419369999998	0.09986110000000001
146675	100	297	stimuli\nonmovArt\mug\nma_mug08.jpg              	1	4	1	nma_mug08.jpg        	nonmovArt	4	mug       	26	mug08       	267	not_alive	0	still	0	artefact	0	n	0	0    	 	0.0	0	173.5741994	173.67410049999998	0.0999011
146825	100	298	stimuli\plant2\moss\plant_moss03.jpg             	1	4	1	plant_moss03.jpg     	plant2   	7	moss      	25	moss03      	252	alive    	1	still	0	natural 	1	n	0	0    	 	0.0	0	173.72420269999998	173.82409719999998	0.09989450000000001
146975	100	299	stimuli\plant2\moss\plant_moss10.jpg             	1	4	1	plant_moss10.jpg     	plant2   	7	moss      	25	moss10      	259	alive    	1	still	0	natural 	1	n	0	0    	 	0.0	0	173.87418269999998	173.9740841	0.0999013999999999
147125	100	300	stimuli\movArt\train\ma_train09.jpg              	1	4	1	ma_train09.jpg       	movArt   	2	train     	34	train09     	348	not_alive	0	moves	1	artefact	0	n	0	0    	 	0.0	0	174.0242046	174.1240846	0.09988
147275	100	301	stimuli\movNat\waterfall\mn_waterfall05.jpg      	1	4	1	mn_waterfall05.jpg   	movNat   	3	waterfall 	37	waterfall05 	374	not_alive	0	moves	1	natural 	1	n	0	0    	 	0.0	0	174.1741958	174.27408569999997	0.0998898999999999
147425	100	302	stimuli\nonmovNat\shell\nmn_shell02.jpg          	1	4	1	nmn_shell02.jpg      	nonmovNat	5	shell     	32	shell02     	321	not_alive	0	still	0	natural 	1	n	0	0    	 	0.0	0	174.3241753	174.424358	0.1001827
147575	100	303	stimuli\animals\dog\animal_dog03.jpg             	1	4	1	animal_dog03.jpg     	animals  	0	dog       	11	dog03       	112	alive    	1	moves	1	natural 	1	n	0	0    	 	0.0	0	174.4741892	174.5740875	0.09989830000000001
147725	100	304	stimuli\nonmovNat\crystal\nmn_crystal07.jpg      	1	4	1	nmn_crystal07.jpg    	nonmovNat	5	crystal   	10	crystal07   	106	not_alive	0	still	0	natural 	1	n	0	0    	 	0.0	0	174.6241636	174.7240834	0.0999198
147875	100	305	stimuli\nonmovNat\shell\nmn_shell10.jpg          	1	4	1	nmn_shell10.jpg      	nonmovNat	5	shell     	32	shell10     	329	not_alive	0	still	0	natural 	1	n	0	0    	 	0.0	0	174.77419440000003	174.87407380000002	0.0998794
148025	100	306	stimuli\animals\eagle\animal_eagle08.jpg         	1	4	1	animal_eagle08.jpg   	animals  	0	eagle     	13	eagle08     	137	alive    	1	moves	1	natural 	1	n	0	0    	 	0.0	0	174.92420249999998	175.0240928	0.0998903
148175	100	307	stimuli\plant2\palmtree\plant_palmtree02.jpg     	1	4	1	plant_palmtree02.jpg 	plant2   	7	palmtree  	27	palmtree02  	271	alive    	1	still	0	natural 	1	n	0	0    	 	0.0	0	175.0741947	175.1740905	0.0998958
148325	100	308	stimuli\animals\eagle\animal_eagle09.jpg         	1	4	1	animal_eagle09.jpg   	animals  	0	eagle     	13	eagle09     	138	alive    	1	moves	1	natural 	1	n	0	0    	 	0.0	0	175.2241737	175.32414119999999	0.0999675
148475	100	309	stimuli\movArt\boat\ma_boat01.jpg                	1	4	1	ma_boat01.jpg        	movArt   	2	boat      	2	boat01      	20	not_alive	0	moves	1	artefact	0	n	0	0    	 	0.0	0	175.3741685	175.47406830000003	0.09989980000000001
148625	100	310	stimuli\plant\cactus\plant_cactus04.jpg          	1	4	1	plant_cactus04.jpg   	plant    	6	cactus    	4	cactus04    	43	alive    	1	still	0	natural 	1	n	0	0    	 	0.0	0	175.52417490000002	175.62407819999999	0.0999033
148775	100	311	stimuli\animals\horse\animal_horse04.jpg         	1	4	1	animal_horse04.jpg   	animals  	0	horse     	20	horse04     	203	alive    	1	moves	1	natural 	1	n	0	0    	 	0.0	0	175.6741755	175.7740896	0.0999141
148925	100	312	stimuli\animals\dolphin\animal_dolphin01.jpg     	1	4	1	animal_dolphin01.jpg 	animals  	0	dolphin   	12	dolphin01   	120	alive    	1	moves	1	natural 	1	n	0	0    	 	0.0	0	175.8241773	175.92406019999999	0.0998829
149075	100	313	stimuli\nonmovNat\sand\nmn_sand07.jpg            	1	4	1	nmn_sand07.jpg       	nonmovNat	5	sand      	31	sand07      	316	not_alive	0	still	0	natural 	1	n	0	0    	 	0.0	0	175.9741756	176.07406909999997	0.0998935
149225	100	314	stimuli\nonmovNat\sand\nmn_sand01.jpg            	1	4	1	nmn_sand01.jpg       	nonmovNat	5	sand      	31	sand01      	310	not_alive	0	still	0	natural 	1	n	0	0    	 	0.0	0	176.1241655	176.2240734	0.0999079
149375	100	315	stimuli\animals2\whale\animal_whale01.jpg        	1	4	1	animal_whale01.jpg   	animals2 	1	whale     	39	whale01     	390	alive    	1	moves	1	natural 	1	n	0	0    	 	0.0	0	176.274172	176.37407530000002	0.0999033
149525	100	316	stimuli\animals\cat\animal_cat03.jpg             	1	4	1	animal_cat03.jpg     	animals  	0	cat       	6	cat03       	62	alive    	1	moves	1	natural 	1	n	0	0    	 	0.0	0	176.4243711	176.5240563	0.0996852
149675	100	317	stimuli\nonmovNat\cliff\nmn_cliff06.jpg          	1	4	1	nmn_cliff06.jpg      	nonmovNat	5	cliff     	7	cliff06     	75	not_alive	0	still	0	natural 	1	n	0	0    	 	0.0	0	176.5741656	176.67406430000003	0.0998986999999999
149825	100	318	stimuli\animals\dolphin\animal_dolphin08.jpg     	1	4	1	animal_dolphin08.jpg 	animals  	0	dolphin   	12	dolphin08   	127	alive    	1	moves	1	natural 	1	n	0	0    	 	0.0	0	176.7241956	176.8240575	0.0998618999999999
149975	100	319	stimuli\nonmovArt\lock\nma_lock09.jpg            	1	4	1	nma_lock09.jpg       	nonmovArt	4	lock      	24	lock09      	248	not_alive	0	still	0	artefact	0	n	0	0    	 	0.0	0	176.8741691	176.9740425	0.0998733999999999
154225	100	320	stimuli\plant2\clover\plant_clover08.jpg         	1	5	1	plant_clover08.jpg   	plant2   	7	clover    	9	clover08    	97	alive    	1	still	0	natural 	1	n	0	0    	 	0.0	0	181.12415269999997	181.2240256	0.0998728999999999
154375	100	321	stimuli\animals\horse\animal_horse05.jpg         	1	5	1	animal_horse05.jpg   	animals  	0	horse     	20	horse05     	204	alive    	1	moves	1	natural 	1	n	0	0    	 	0.0	0	181.2741046	181.37401430000003	0.0999097
154525	100	322	stimuli\plant2\fern\plant_fern03.jpg             	1	5	1	plant_fern03.jpg     	plant2   	7	fern      	14	fern03      	142	alive    	1	still	0	natural 	1	n	0	0    	 	0.0	0	181.4241249	181.52401819999997	0.0998933
154675	100	323	stimuli\animals\dolphin\animal_dolphin09.jpg     	1	5	1	animal_dolphin09.jpg 	animals  	0	dolphin   	12	dolphin09   	128	alive    	1	moves	1	natural 	1	n	0	0    	 	0.0	0	181.5741071	181.6740155	0.0999084
154825	100	324	stimuli\plant\tree\plant_tree10.jpg              	1	5	1	plant_tree10.jpg     	plant    	6	tree      	35	tree10      	359	alive    	1	still	0	natural 	1	n	0	0    	 	0.0	0	181.7241006	181.82400719999998	0.0999066
154975	100	325	stimuli\plant\vine\plant_vine06.jpg              	1	5	1	plant_vine06.jpg     	plant    	6	vine      	36	vine06      	365	alive    	1	still	0	natural 	1	n	0	0    	 	0.0	0	181.874113	181.97401430000002	0.0999013
155125	100	326	stimuli\movNat\river\mn_river05.jpg              	1	5	1	mn_river05.jpg       	movNat   	3	river     	29	river05     	294	not_alive	0	moves	1	natural 	1	n	0	0    	 	0.0	0	182.0241012	182.1240128	0.0999116
155275	100	327	stimuli\nonmovArt\bench\nma_bench06.jpg          	1	5	1	nma_bench06.jpg      	nonmovArt	4	bench     	1	bench06     	15	not_alive	0	still	0	artefact	0	n	0	0    	 	0.0	0	182.17409809999998	182.2739911	0.099893
155425	100	328	stimuli\movArt\train\ma_train07.jpg              	1	5	1	ma_train07.jpg       	movArt   	2	train     	34	train07     	346	not_alive	0	moves	1	artefact	0	n	0	0    	 	0.0	0	182.3240996	182.42400080000002	0.0999012
155575	100	329	stimuli\plant\flower\plant_flower07.jpg          	1	5	1	plant_flower07.jpg   	plant    	6	flower    	16	flower07    	166	alive    	1	still	0	natural 	1	n	0	0    	 	0.0	0	182.4741291	182.5739916	0.0998625
155725	100	330	stimuli\animals2\lemur\animal_lemur06.jpg        	1	5	1	animal_lemur06.jpg   	animals2 	1	lemur     	23	lemur06     	235	alive    	1	moves	1	natural 	1	n	0	0    	 	0.0	0	182.6240882	182.7239988	0.09991060000000002
155875	100	331	stimuli\movNat\river\mn_river09.jpg              	1	5	1	mn_river09.jpg       	movNat   	3	river     	29	river09     	298	not_alive	0	moves	1	natural 	1	n	0	0    	 	0.0	0	182.7741016	182.8739987	0.0998971
156025	100	332	stimuli\nonmovArt\bench\nma_bench09.jpg          	1	5	1	nma_bench09.jpg      	nonmovArt	4	bench     	1	bench09     	18	not_alive	0	still	0	artefact	0	n	0	0    	 	0.0	0	182.9241093	183.02399319999998	0.0998839
156175	100	333	stimuli\movNat\waves\mn_waves02.jpg              	1	5	1	mn_waves02.jpg       	movNat   	3	waves     	38	waves02     	381	not_alive	0	moves	1	natural 	1	n	0	0    	 	0.0	0	183.0741006	183.1739968	0.0998962
156325	100	334	stimuli\animals\eagle\animal_eagle05.jpg         	1	5	1	animal_eagle05.jpg   	animals  	0	eagle     	13	eagle05     	134	alive    	1	moves	1	natural 	1	n	0	0    	 	0.0	0	183.224086	183.3239825	0.0998965
156475	100	335	stimuli\nonmovNat\sand\nmn_sand01.jpg            	1	5	1	nmn_sand01.jpg       	nonmovNat	5	sand      	31	sand01      	310	not_alive	0	still	0	natural 	1	n	0	0    	 	0.0	0	183.37410359999998	183.4740172	0.0999136
156625	100	336	stimuli\animals2\bee\animal_bee01.jpg            	1	5	1	animal_bee01.jpg     	animals2 	1	bee       	0	bee01       	0	alive    	1	moves	1	natural 	1	n	0	0    	 	0.0	0	183.52408730000002	183.62400449999998	0.0999172
156775	100	337	stimuli\movArt\car\ma_car02.jpg                  	1	5	1	ma_car02.jpg         	movArt   	2	car       	5	car02       	51	not_alive	0	moves	1	artefact	0	n	0	0    	 	0.0	0	183.6740854	183.77398440000002	0.099899
156925	100	338	stimuli\movNat\waterfall\mn_waterfall03.jpg      	1	5	1	mn_waterfall03.jpg   	movNat   	3	waterfall 	37	waterfall03 	372	not_alive	0	moves	1	natural 	1	n	0	0    	 	0.0	0	183.8240856	183.92399709999998	0.0999115
157075	100	339	stimuli\plant2\fern\plant_fern10.jpg             	1	5	1	plant_fern10.jpg     	plant2   	7	fern      	14	fern10      	149	alive    	1	still	0	natural 	1	n	0	0    	 	0.0	0	183.974075	184.0739929	0.0999179
157225	100	340	stimuli\plant2\lemontree\plant_lemontree10.jpg   	1	5	1	plant_lemontree10.jpg	plant2   	7	lemontree 	22	lemontree10 	229	alive    	1	still	0	natural 	1	n	0	0    	 	0.0	0	184.12409619999997	184.2239802	0.099884
157375	100	341	stimuli\animals\cat\animal_cat07.jpg             	1	5	1	animal_cat07.jpg     	animals  	0	cat       	6	cat07       	66	alive    	1	moves	1	natural 	1	n	0	0    	 	0.0	0	184.27408559999998	184.3739875	0.0999018999999999
157525	100	342	stimuli\animals2\lemur\animal_lemur09.jpg        	1	5	1	animal_lemur09.jpg   	animals2 	1	lemur     	23	lemur09     	238	alive    	1	moves	1	natural 	1	n	0	0    	 	0.0	0	184.42407859999997	184.5239717	0.0998931
157675	100	343	stimuli\nonmovNat\rock\nmn_rock10.jpg            	1	5	1	nmn_rock10.jpg       	nonmovNat	5	rock      	30	rock10      	309	not_alive	0	still	0	natural 	1	n	0	0    	 	0.0	0	184.57406799999998	184.6739894	0.0999214
157825	100	344	stimuli\movNat\waves\mn_waves02.jpg              	1	5	1	mn_waves02.jpg       	movNat   	3	waves     	38	waves02     	381	not_alive	0	moves	1	natural 	1	n	0	0    	 	0.0	0	184.7240761	184.8239858	0.0999097
157975	100	345	stimuli\nonmovArt\lock\nma_lock02.jpg            	1	5	1	nma_lock02.jpg       	nonmovArt	4	lock      	24	lock02      	241	not_alive	0	still	0	artefact	0	n	1	0    	 	0.0	0	184.874079	184.9739831	0.09990410000000001
158125	100	346	stimuli\animals2\lemur\animal_lemur03.jpg        	1	5	1	animal_lemur03.jpg   	animals2 	1	lemur     	23	lemur03     	232	alive    	1	moves	1	natural 	1	n	0	0    	 	0.0	0	185.0240603	185.1239635	0.0999032
158275	100	347	stimuli\animals\dog\animal_dog06.jpg             	1	5	1	animal_dog06.jpg     	animals  	0	dog       	11	dog06       	115	alive    	1	moves	1	natural 	1	n	0	1    	f	0.3052331	1	185.1740686	185.27396330000002	0.0998947
158425	100	348	stimuli\nonmovArt\headphones\nma_headphones09.jpg	1	5	1	nma_headphones09.jpg 	nonmovArt	4	headphones	18	headphones09	188	not_alive	0	still	0	artefact	0	n	0	0    	 	0.0	0	185.3240739	185.4240479	0.09997400000000001
158575	100	349	stimuli\plant\tree\plant_tree06.jpg              	1	5	1	plant_tree06.jpg     	plant    	6	tree      	35	tree06      	355	alive    	1	still	0	natural 	1	n	1	0    	 	0.0	0	185.47412119999998	185.57397230000004	0.09985110000000001
158725	100	350	stimuli\movNat\fire\mn_fire08.jpg                	1	5	1	mn_fire08.jpg        	movNat   	3	fire      	15	fire08      	157	not_alive	0	moves	1	natural 	1	n	0	0    	 	0.0	0	185.62408019999998	185.7239615	0.0998812999999999
158875	100	351	stimuli\nonmovArt\lock\nma_lock05.jpg            	1	5	1	nma_lock05.jpg       	nonmovArt	4	lock      	24	lock05      	244	not_alive	0	still	0	artefact	0	n	0	0    	 	0.0	0	185.77407659999997	185.8739644	0.0998878
159025	100	352	stimuli\plant\cactus\plant_cactus05.jpg          	1	5	1	plant_cactus05.jpg   	plant    	6	cactus    	4	cactus05    	44	alive    	1	still	0	natural 	1	n	0	0    	 	0.0	0	185.92406499999998	186.0239543	0.0998893
159175	100	353	stimuli\movNat\fire\mn_fire10.jpg                	1	5	1	mn_fire10.jpg        	movNat   	3	fire      	15	fire10      	159	not_alive	0	moves	1	natural 	1	n	0	0    	 	0.0	0	186.0740531	186.1739669	0.0999138
159325	100	354	stimuli\plant2\clover\plant_clover08.jpg         	1	5	1	plant_clover08.jpg   	plant2   	7	clover    	9	clover08    	97	alive    	1	still	0	natural 	1	n	0	0    	 	0.0	0	186.22405990000001	186.323965	0.09990510000000001
159475	100	355	stimuli\movNat\hotspring\mn_hotspring06.jpg      	1	5	1	mn_hotspring06.jpg   	movNat   	3	hotspring 	21	hotspring06 	215	not_alive	0	moves	1	natural 	1	n	0	0    	 	0.0	0	186.3740876	186.47400119999998	0.0999136
159625	100	356	stimuli\plant\tree\plant_tree05.jpg              	1	5	1	plant_tree05.jpg     	plant    	6	tree      	35	tree05      	354	alive    	1	still	0	natural 	1	n	0	0    	 	0.0	0	186.5240654	186.6239497	0.09988430000000001
159775	100	357	stimuli\nonmovNat\crystal\nmn_crystal08.jpg      	1	5	1	nmn_crystal08.jpg    	nonmovNat	5	crystal   	10	crystal08   	107	not_alive	0	still	0	natural 	1	n	0	0    	 	0.0	0	186.6740716	186.7739569	0.09988530000000001
159925	100	358	stimuli\plant\grass\plant_grass09.jpg            	1	5	1	plant_grass09.jpg    	plant    	6	grass     	17	grass09     	178	alive    	1	still	0	natural 	1	n	0	0    	 	0.0	0	186.82405559999998	186.9239569	0.0999013
160075	100	359	stimuli\animals2\bee\animal_bee09.jpg            	1	5	1	animal_bee09.jpg     	animals2 	1	bee       	0	bee09       	8	alive    	1	moves	1	natural 	1	n	1	0    	 	0.0	0	186.9740496	187.07397	0.0999203999999999
160225	100	360	stimuli\animals2\tiger\animal_tiger02.jpg        	1	5	1	animal_tiger02.jpg   	animals2 	1	tiger     	33	tiger02     	331	alive    	1	moves	1	natural 	1	n	0	0    	 	0.0	0	187.1240532	187.2239541	0.0999008999999999
160375	100	361	stimuli\movArt\helicopter\ma_helicopter01.jpg    	1	5	1	ma_helicopter01.jpg  	movArt   	2	helicopter	19	helicopter01	190	not_alive	0	moves	1	artefact	0	n	0	1    	f	0.3920406	1	187.27407230000003	187.37394640000002	0.09987410000000001
160525	100	362	stimuli\movNat\hotspring\mn_hotspring05.jpg      	1	5	1	mn_hotspring05.jpg   	movNat   	3	hotspring 	21	hotspring05 	214	not_alive	0	moves	1	natural 	1	n	0	0    	 	0.0	0	187.4240519	187.523979	0.0999271
160675	100	363	stimuli\plant2\lemontree\plant_lemontree01.jpg   	1	5	1	plant_lemontree01.jpg	plant2   	7	lemontree 	22	lemontree01 	220	alive    	1	still	0	natural 	1	n	0	0    	 	0.0	0	187.5740669	187.6739515	0.0998846
160825	100	364	stimuli\nonmovArt\headphones\nma_headphones04.jpg	1	5	1	nma_headphones04.jpg 	nonmovArt	4	headphones	18	headphones04	183	not_alive	0	still	0	artefact	0	n	0	0    	 	0.0	0	187.7240086	187.82394330000002	0.0999347
160975	100	365	stimuli\nonmovNat\cliff\nmn_cliff04.jpg          	1	5	1	nmn_cliff04.jpg      	nonmovNat	5	cliff     	7	cliff04     	73	not_alive	0	still	0	natural 	1	n	0	0    	 	0.0	0	187.874028	187.9739415	0.0999135
161125	100	366	stimuli\nonmovNat\sand\nmn_sand05.jpg            	1	5	1	nmn_sand05.jpg       	nonmovNat	5	sand      	31	sand05      	314	not_alive	0	still	0	natural 	1	n	0	0    	 	0.0	0	188.0240478	188.1239563	0.0999085
161275	100	367	stimuli\plant\vine\plant_vine09.jpg              	1	5	1	plant_vine09.jpg     	plant    	6	vine      	36	vine09      	368	alive    	1	still	0	natural 	1	n	0	0    	 	0.0	0	188.17405380000002	188.2739018	0.099848
161425	100	368	stimuli\nonmovNat\shell\nmn_shell05.jpg          	1	5	1	nmn_shell05.jpg      	nonmovNat	5	shell     	32	shell05     	324	not_alive	0	still	0	natural 	1	n	0	0    	 	0.0	0	188.3240293	188.4239196	0.0998903
161575	100	369	stimuli\plant\flower\plant_flower04.jpg          	1	5	1	plant_flower04.jpg   	plant    	6	flower    	16	flower04    	163	alive    	1	still	0	natural 	1	n	0	0    	 	0.0	0	188.4740651	188.5739383	0.0998732
161725	100	370	stimuli\animals2\whale\animal_whale08.jpg        	1	5	1	animal_whale08.jpg   	animals2 	1	whale     	39	whale08     	397	alive    	1	moves	1	natural 	1	n	0	0    	 	0.0	0	188.6240441	188.72394319999998	0.0998991
161875	100	371	stimuli\animals2\tiger\animal_tiger09.jpg        	1	5	1	animal_tiger09.jpg   	animals2 	1	tiger     	33	tiger09     	338	alive    	1	moves	1	natural 	1	n	0	0    	 	0.0	0	188.77405090000002	188.8739233	0.0998724
162025	100	372	stimuli\animals2\pigeon\animal_pigeon03.jpg      	1	5	1	animal_pigeon03.jpg  	animals2 	1	pigeon    	28	pigeon03    	282	alive    	1	moves	1	natural 	1	n	0	0    	 	0.0	0	188.9240396	189.0239399	0.0999003
162175	100	373	stimuli\animals\horse\animal_horse08.jpg         	1	5	1	animal_horse08.jpg   	animals  	0	horse     	20	horse08     	207	alive    	1	moves	1	natural 	1	n	0	0    	 	0.0	0	189.0740589	189.1739238	0.0998648999999999
162325	100	374	stimuli\movNat\waterfall\mn_waterfall08.jpg      	1	5	1	mn_waterfall08.jpg   	movNat   	3	waterfall 	37	waterfall08 	377	not_alive	0	moves	1	natural 	1	n	0	0    	 	0.0	0	189.2240309	189.3239227	0.0998918
162475	100	375	stimuli\movNat\waterfall\mn_waterfall02.jpg      	1	5	1	mn_waterfall02.jpg   	movNat   	3	waterfall 	37	waterfall02 	371	not_alive	0	moves	1	natural 	1	n	0	0    	 	0.0	0	189.3740219	189.4739538	0.0999318999999999
162625	100	376	stimuli\plant\cactus\plant_cactus08.jpg          	1	5	1	plant_cactus08.jpg   	plant    	6	cactus    	4	cactus08    	47	alive    	1	still	0	natural 	1	n	0	0    	 	0.0	0	189.52399340000002	189.62391440000002	0.09992100000000001
162775	100	377	stimuli\movArt\helicopter\ma_helicopter10.jpg    	1	5	1	ma_helicopter10.jpg  	movArt   	2	helicopter	19	helicopter10	199	not_alive	0	moves	1	artefact	0	n	0	0    	 	0.0	0	189.6740285	189.7739311	0.09990260000000001
162925	100	378	stimuli\plant2\palmtree\plant_palmtree02.jpg     	1	5	1	plant_palmtree02.jpg 	plant2   	7	palmtree  	27	palmtree02  	271	alive    	1	still	0	natural 	1	n	0	0    	 	0.0	0	189.82402199999999	189.9239243	0.0999023
163075	100	379	stimuli\nonmovArt\clothespeg\nma_clothespeg10.jpg	1	5	1	nma_clothespeg10.jpg 	nonmovArt	4	clothespeg	8	clothespeg10	89	not_alive	0	still	0	artefact	0	n	0	0    	 	0.0	0	189.9740307	190.07392959999999	0.0998989
163225	100	380	stimuli\animals\dog\animal_dog04.jpg             	1	5	1	animal_dog04.jpg     	animals  	0	dog       	11	dog04       	113	alive    	1	moves	1	natural 	1	n	0	0    	 	0.0	0	190.1240133	190.2239227	0.0999094
163375	100	381	stimuli\plant\flower\plant_flower09.jpg          	1	5	1	plant_flower09.jpg   	plant    	6	flower    	16	flower09    	168	alive    	1	still	0	natural 	1	n	0	0    	 	0.0	0	190.27402819999998	190.3739201	0.0998918999999999
163525	100	382	stimuli\movArt\helicopter\ma_helicopter09.jpg    	1	5	1	ma_helicopter09.jpg  	movArt   	2	helicopter	19	helicopter09	198	not_alive	0	moves	1	artefact	0	n	0	0    	 	0.0	0	190.4240322	190.5239061	0.0998738999999999
163675	100	383	stimuli\movArt\boat\ma_boat04.jpg                	1	5	1	ma_boat04.jpg        	movArt   	2	boat      	2	boat04      	23	not_alive	0	moves	1	artefact	0	n	0	0    	 	0.0	0	190.5740174	190.673925	0.0999076
163825	100	384	stimuli\animals2\bee\animal_bee08.jpg            	1	5	1	animal_bee08.jpg     	animals2 	1	bee       	0	bee08       	7	alive    	1	moves	1	natural 	1	n	0	0    	 	0.0	0	190.7240187	190.82391719999998	0.0998985
163975	100	385	stimuli\movArt\train\ma_train01.jpg              	1	5	1	ma_train01.jpg       	movArt   	2	train     	34	train01     	340	not_alive	0	moves	1	artefact	0	n	0	0    	 	0.0	0	190.87403659999998	190.97391409999997	0.0998775
164125	100	386	stimuli\plant\tree\plant_tree03.jpg              	1	5	1	plant_tree03.jpg     	plant    	6	tree      	35	tree03      	352	alive    	1	still	0	natural 	1	n	0	0    	 	0.0	0	191.0240227	191.12390349999998	0.0998808
164275	100	387	stimuli\animals2\whale\animal_whale08.jpg        	1	5	1	animal_whale08.jpg   	animals2 	1	whale     	39	whale08     	397	alive    	1	moves	1	natural 	1	n	0	0    	 	0.0	0	191.1740036	191.2739042	0.0999006
164425	100	388	stimuli\movArt\bus\ma_bus10.jpg                  	1	5	1	ma_bus10.jpg         	movArt   	2	bus       	3	bus10       	39	not_alive	0	moves	1	artefact	0	n	0	0    	 	0.0	0	191.32400859999998	191.42391630000003	0.0999077
164575	100	389	stimuli\plant\flower\plant_flower04.jpg          	1	5	1	plant_flower04.jpg   	plant    	6	flower    	16	flower04    	163	alive    	1	still	0	natural 	1	n	0	0    	 	0.0	0	191.4740409	191.5739091	0.0998682
164725	100	390	stimuli\plant2\clover\plant_clover05.jpg         	1	5	1	plant_clover05.jpg   	plant2   	7	clover    	9	clover05    	94	alive    	1	still	0	natural 	1	n	0	0    	 	0.0	0	191.6240221	191.7239101	0.099888
164875	100	391	stimuli\plant\tree\plant_tree06.jpg              	1	5	1	plant_tree06.jpg     	plant    	6	tree      	35	tree06      	355	alive    	1	still	0	natural 	1	n	0	0    	 	0.0	0	191.7740102	191.8739009	0.0998907
165025	100	392	stimuli\nonmovArt\bench\nma_bench09.jpg          	1	5	1	nma_bench09.jpg      	nonmovArt	4	bench     	1	bench09     	18	not_alive	0	still	0	artefact	0	n	0	0    	 	0.0	0	191.92399740000002	192.02388290000002	0.0998855
165175	100	393	stimuli\plant2\fern\plant_fern01.jpg             	1	5	1	plant_fern01.jpg     	plant2   	7	fern      	14	fern01      	140	alive    	1	still	0	natural 	1	n	0	0    	 	0.0	0	192.0739977	192.1738996	0.0999018999999999
165325	100	394	stimuli\plant2\lemontree\plant_lemontree04.jpg   	1	5	1	plant_lemontree04.jpg	plant2   	7	lemontree 	22	lemontree04 	223	alive    	1	still	0	natural 	1	n	0	0    	 	0.0	0	192.22400119999998	192.3238967	0.0998955
165475	100	395	stimuli\nonmovArt\mug\nma_mug07.jpg              	1	5	1	nma_mug07.jpg        	nonmovArt	4	mug       	26	mug07       	266	not_alive	0	still	0	artefact	0	n	0	0    	 	0.0	0	192.3739936	192.4739253	0.0999317
165625	100	396	stimuli\movNat\waterfall\mn_waterfall01.jpg      	1	5	1	mn_waterfall01.jpg   	movNat   	3	waterfall 	37	waterfall01 	370	not_alive	0	moves	1	natural 	1	n	0	0    	 	0.0	0	192.52406530000002	192.6239064	0.0998411
165775	100	397	stimuli\nonmovNat\crystal\nmn_crystal09.jpg      	1	5	1	nmn_crystal09.jpg    	nonmovNat	5	crystal   	10	crystal09   	108	not_alive	0	still	0	natural 	1	n	0	0    	 	0.0	0	192.673987	192.773898	0.099911
165925	100	398	stimuli\animals\cat\animal_cat08.jpg             	1	5	1	animal_cat08.jpg     	animals  	0	cat       	6	cat08       	67	alive    	1	moves	1	natural 	1	n	0	0    	 	0.0	0	192.82399119999997	192.9238893	0.09989810000000002
166075	100	399	stimuli\animals\horse\animal_horse02.jpg         	1	5	1	animal_horse02.jpg   	animals  	0	horse     	20	horse02     	201	alive    	1	moves	1	natural 	1	n	0	0    	 	0.0	0	192.97400180000002	193.0738935	0.0998916999999999
168075	100	400	stimuli\nonmovNat\crystal\nmn_crystal02.jpg      	1	6	1	nmn_crystal02.jpg    	nonmovNat	5	crystal   	10	crystal02   	101	not_alive	0	still	0	natural 	1	n	0	0    	 	0.0	0	194.9739861	195.07387240000003	0.09988630000000001
168225	100	401	stimuli\movNat\fire\mn_fire10.jpg                	1	6	1	mn_fire10.jpg        	movNat   	3	fire      	15	fire10      	159	not_alive	0	moves	1	natural 	1	n	0	0    	 	0.0	0	195.1239727	195.2238707	0.099898
168375	100	402	stimuli\plant2\lemontree\plant_lemontree05.jpg   	1	6	1	plant_lemontree05.jpg	plant2   	7	lemontree 	22	lemontree05 	224	alive    	1	still	0	natural 	1	n	0	0    	 	0.0	0	195.2739665	195.37385580000003	0.0998893
168525	100	403	stimuli\animals2\whale\animal_whale06.jpg        	1	6	1	animal_whale06.jpg   	animals2 	1	whale     	39	whale06     	395	alive    	1	moves	1	natural 	1	n	0	0    	 	0.0	0	195.4239581	195.5238679	0.0999098
168675	100	404	stimuli\animals\cat\animal_cat04.jpg             	1	6	1	animal_cat04.jpg     	animals  	0	cat       	6	cat04       	63	alive    	1	moves	1	natural 	1	n	0	0    	 	0.0	0	195.5739593	195.67385819999998	0.0998989
168825	100	405	stimuli\plant\grass\plant_grass05.jpg            	1	6	1	plant_grass05.jpg    	plant    	6	grass     	17	grass05     	174	alive    	1	still	0	natural 	1	n	0	0    	 	0.0	0	195.7239612	195.8238585	0.09989730000000001
168975	100	406	stimuli\animals\eagle\animal_eagle03.jpg         	1	6	1	animal_eagle03.jpg   	animals  	0	eagle     	13	eagle03     	132	alive    	1	moves	1	natural 	1	n	0	0    	 	0.0	0	195.8739651	195.9738579	0.0998928
169125	100	407	stimuli\plant2\palmtree\plant_palmtree02.jpg     	1	6	1	plant_palmtree02.jpg 	plant2   	7	palmtree  	27	palmtree02  	271	alive    	1	still	0	natural 	1	n	0	0    	 	0.0	0	196.024006	196.12388700000002	0.099881
169275	100	408	stimuli\nonmovNat\rock\nmn_rock02.jpg            	1	6	1	nmn_rock02.jpg       	nonmovNat	5	rock      	30	rock02      	301	not_alive	0	still	0	natural 	1	n	0	0    	 	0.0	0	196.17395390000001	196.2738872	0.0999333
169425	100	409	stimuli\movArt\boat\ma_boat03.jpg                	1	6	1	ma_boat03.jpg        	movArt   	2	boat      	2	boat03      	22	not_alive	0	moves	1	artefact	0	n	0	0    	 	0.0	0	196.3241042	196.4238586	0.0997544
169575	100	410	stimuli\nonmovNat\cliff\nmn_cliff08.jpg          	1	6	1	nmn_cliff08.jpg      	nonmovNat	5	cliff     	7	cliff08     	77	not_alive	0	still	0	natural 	1	n	0	0    	 	0.0	0	196.4739536	196.57386609999998	0.0999125
169725	100	411	stimuli\nonmovArt\clothespeg\nma_clothespeg07.jpg	1	6	1	nma_clothespeg07.jpg 	nonmovArt	4	clothespeg	8	clothespeg07	86	not_alive	0	still	0	artefact	0	n	0	0    	 	0.0	0	196.623943	196.7238405	0.0998975
169875	100	412	stimuli\movNat\hotspring\mn_hotspring07.jpg      	1	6	1	mn_hotspring07.jpg   	movNat   	3	hotspring 	21	hotspring07 	216	not_alive	0	moves	1	natural 	1	n	0	0    	 	0.0	0	196.773948	196.87384980000002	0.0999018
170025	100	413	stimuli\animals2\pigeon\animal_pigeon07.jpg      	1	6	1	animal_pigeon07.jpg  	animals2 	1	pigeon    	28	pigeon07    	286	alive    	1	moves	1	natural 	1	n	0	0    	 	0.0	0	196.9239388	197.02383500000002	0.0998962
170175	100	414	stimuli\animals2\tiger\animal_tiger08.jpg        	1	6	1	animal_tiger08.jpg   	animals2 	1	tiger     	33	tiger08     	337	alive    	1	moves	1	natural 	1	n	0	0    	 	0.0	0	197.0739489	197.1738265	0.09987760000000001
170325	100	415	stimuli\animals\cat\animal_cat01.jpg             	1	6	1	animal_cat01.jpg     	animals  	0	cat       	6	cat01       	60	alive    	1	moves	1	natural 	1	n	0	0    	 	0.0	0	197.22393	197.3238603	0.0999303
170475	100	416	stimuli\nonmovNat\sand\nmn_sand10.jpg            	1	6	1	nmn_sand10.jpg       	nonmovNat	5	sand      	31	sand10      	319	not_alive	0	still	0	natural 	1	n	0	0    	 	0.0	0	197.37395940000002	197.473852	0.0998926
170625	100	417	stimuli\plant\grass\plant_grass10.jpg            	1	6	1	plant_grass10.jpg    	plant    	6	grass     	17	grass10     	179	alive    	1	still	0	natural 	1	n	0	0    	 	0.0	0	197.5239312	197.62384319999998	0.099912
170775	100	418	stimuli\animals2\lemur\animal_lemur01.jpg        	1	6	1	animal_lemur01.jpg   	animals2 	1	lemur     	23	lemur01     	230	alive    	1	moves	1	natural 	1	n	0	0    	 	0.0	0	197.6739505	197.773841	0.0998905
170925	100	419	stimuli\movNat\river\mn_river05.jpg              	1	6	1	mn_river05.jpg       	movNat   	3	river     	29	river05     	294	not_alive	0	moves	1	natural 	1	n	0	0    	 	0.0	0	197.82395060000002	197.92386430000002	0.0999137
171075	100	420	stimuli\animals\eagle\animal_eagle07.jpg         	1	6	1	animal_eagle07.jpg   	animals  	0	eagle     	13	eagle07     	136	alive    	1	moves	1	natural 	1	n	0	0    	 	0.0	0	197.9739409	198.0739051	0.0999641999999999
171225	100	421	stimuli\animals2\bee\animal_bee06.jpg            	1	6	1	animal_bee06.jpg     	animals2 	1	bee       	0	bee06       	5	alive    	1	moves	1	natural 	1	n	0	0    	 	0.0	0	198.1240302	198.22306819999997	0.099038
171374	100	422	stimuli\animals\dog\animal_dog05.jpg             	1	6	1	animal_dog05.jpg     	animals  	0	dog       	11	dog05       	114	alive    	1	moves	1	natural 	1	n	0	0    	 	0.0	0	198.2730788	198.3730678	0.099989
171524	100	423	stimuli\nonmovArt\lock\nma_lock06.jpg            	1	6	1	nma_lock06.jpg       	nonmovArt	4	lock      	24	lock06      	245	not_alive	0	still	0	artefact	0	n	0	1    	f	0.0	0	198.4230767	198.5230666	0.0999898999999999
171674	100	424	stimuli\nonmovNat\sand\nmn_sand04.jpg            	1	6	1	nmn_sand04.jpg       	nonmovNat	5	sand      	31	sand04      	313	not_alive	0	still	0	natural 	1	n	0	0    	 	0.0	0	198.5730755	198.6730638	0.0999883
171824	100	425	stimuli\nonmovArt\lock\nma_lock06.jpg            	1	6	1	nma_lock06.jpg       	nonmovArt	4	lock      	24	lock06      	245	not_alive	0	still	0	artefact	0	n	0	0    	 	0.0	0	198.723074	198.8230638	0.0999898
171974	100	426	stimuli\movArt\bus\ma_bus02.jpg                  	1	6	1	ma_bus02.jpg         	movArt   	2	bus       	3	bus02       	31	not_alive	0	moves	1	artefact	0	n	0	0    	 	0.0	0	198.8730715	198.9730622	0.0999906999999999
172124	100	427	stimuli\nonmovNat\shell\nmn_shell02.jpg          	1	6	1	nmn_shell02.jpg      	nonmovNat	5	shell     	32	shell02     	321	not_alive	0	still	0	natural 	1	n	0	0    	 	0.0	0	199.02307009999998	199.12306189999998	0.0999918
172274	100	428	stimuli\animals\dolphin\animal_dolphin07.jpg     	1	6	1	animal_dolphin07.jpg 	animals  	0	dolphin   	12	dolphin07   	126	alive    	1	moves	1	natural 	1	n	0	0    	 	0.0	0	199.1730687	199.2730575	0.0999888
172424	100	429	stimuli\plant2\moss\plant_moss10.jpg             	1	6	1	plant_moss10.jpg     	plant2   	7	moss      	25	moss10      	259	alive    	1	still	0	natural 	1	n	0	0    	 	0.0	0	199.3230804	199.4230569	0.0999765
172574	100	430	stimuli\animals\horse\animal_horse03.jpg         	1	6	1	animal_horse03.jpg   	animals  	0	horse     	20	horse03     	202	alive    	1	moves	1	natural 	1	n	0	0    	 	0.0	0	199.4730677	199.573064	0.09999630000000001
172724	100	431	stimuli\movNat\river\mn_river03.jpg              	1	6	1	mn_river03.jpg       	movNat   	3	river     	29	river03     	292	not_alive	0	moves	1	natural 	1	n	0	0    	 	0.0	0	199.6230646	199.7230521	0.0999875
172874	100	432	stimuli\nonmovArt\bench\nma_bench09.jpg          	1	6	1	nma_bench09.jpg      	nonmovArt	4	bench     	1	bench09     	18	not_alive	0	still	0	artefact	0	n	0	0    	 	0.0	0	199.7730635	199.8730626	0.09999910000000001
173024	100	433	stimuli\plant2\palmtree\plant_palmtree03.jpg     	1	6	1	plant_palmtree03.jpg 	plant2   	7	palmtree  	27	palmtree03  	272	alive    	1	still	0	natural 	1	n	0	0    	 	0.0	0	199.9230761	200.0230522	0.09997610000000001
173174	100	434	stimuli\movArt\boat\ma_boat09.jpg                	1	6	1	ma_boat09.jpg        	movArt   	2	boat      	2	boat09      	28	not_alive	0	moves	1	artefact	0	n	0	0    	 	0.0	0	200.0730592	200.173049	0.0999898
173324	100	435	stimuli\nonmovNat\rock\nmn_rock01.jpg            	1	6	1	nmn_rock01.jpg       	nonmovNat	5	rock      	30	rock01      	300	not_alive	0	still	0	natural 	1	n	0	0    	 	0.0	0	200.2230561	200.3230507	0.0999946
173474	100	436	stimuli\movNat\hotspring\mn_hotspring07.jpg      	1	6	1	mn_hotspring07.jpg   	movNat   	3	hotspring 	21	hotspring07 	216	not_alive	0	moves	1	natural 	1	n	0	0    	 	0.0	0	200.3730573	200.4730456	0.0999883
173624	100	437	stimuli\nonmovArt\bench\nma_bench02.jpg          	1	6	1	nma_bench02.jpg      	nonmovArt	4	bench     	1	bench02     	11	not_alive	0	still	0	artefact	0	n	0	0    	 	0.0	0	200.52305330000002	200.6230431	0.0999898
173774	100	438	stimuli\animals2\pigeon\animal_pigeon06.jpg      	1	6	1	animal_pigeon06.jpg  	animals2 	1	pigeon    	28	pigeon06    	285	alive    	1	moves	1	natural 	1	n	0	0    	 	0.0	0	200.6730532	200.7730406	0.0999873999999999
173924	100	439	stimuli\movNat\fire\mn_fire07.jpg                	1	6	1	mn_fire07.jpg        	movNat   	3	fire      	15	fire07      	156	not_alive	0	moves	1	natural 	1	n	0	0    	 	0.0	0	200.82305159999999	200.9230409	0.0999893
174074	100	440	stimuli\plant\cactus\plant_cactus02.jpg          	1	6	1	plant_cactus02.jpg   	plant    	6	cactus    	4	cactus02    	41	alive    	1	still	0	natural 	1	n	0	0    	 	0.0	0	200.9730484	201.0730613	0.10001289999999999
