onset	duration	eventnumber	stimulus_file	blockno	trialno	is_faststream	stim	stim_category	category_number	exemplar	exemplar_number	image_name	image_number	aliveness	aliveness_bin	movement	movement_bin	naturalness	naturalness_bin	response_hand_moves	istarget	response	keypressed	rt	correct	time_stimon	time_stimoff	stimdur
49713	100	0	stimuli\plant2\clover\plant_clover07.jpg         	1	1	1	plant_clover07.jpg   	plant2   	7	clover    	9	clover07    	96	alive    	1	still	0	natural 	1	n	0	0    	 	0.0	0	80.2289762999862	80.32887389999809	0.0998976000119
49863	100	1	stimuli\movArt\car\ma_car04.jpg                  	1	1	1	ma_car04.jpg         	movArt   	2	car       	5	car04       	53	not_alive	0	moves	1	artefact	0	n	0	0    	 	0.0	0	80.37901320005771	80.4788804000709	0.0998672000132501
50013	100	2	stimuli\movArt\helicopter\ma_helicopter02.jpg    	1	1	1	ma_helicopter02.jpg  	movArt   	2	helicopter	19	helicopter02	191	not_alive	0	moves	1	artefact	0	n	0	0    	 	0.0	0	80.5289512999589	80.6288913000608	0.0999400001019239
50163	100	3	stimuli\nonmovArt\bench\nma_bench10.jpg          	1	1	1	nma_bench10.jpg      	nonmovArt	4	bench     	1	bench10     	19	not_alive	0	still	0	artefact	0	n	0	0    	 	0.0	0	80.6789449000498	80.7788822000148	0.0999372999649494
50313	100	4	stimuli\movArt\helicopter\ma_helicopter04.jpg    	1	1	1	ma_helicopter04.jpg  	movArt   	2	helicopter	19	helicopter04	193	not_alive	0	moves	1	artefact	0	n	0	0    	 	0.0	0	80.82896720001008	80.9288687000517	0.0999015000415966
50463	100	5	stimuli\animals\cat\animal_cat08.jpg             	1	1	1	animal_cat08.jpg     	animals  	0	cat       	6	cat08       	67	alive    	1	moves	1	natural 	1	n	0	0    	 	0.0	0	80.9789700000547	81.07887840003241	0.0999083999777212
50613	100	6	stimuli\nonmovNat\rock\nmn_rock04.jpg            	1	1	1	nmn_rock04.jpg       	nonmovNat	5	rock      	30	rock04      	303	not_alive	0	still	0	natural 	1	n	0	0    	 	0.0	0	81.1289527000627	81.22887620003891	0.0999234999762848
50763	100	7	stimuli\movNat\fire\mn_fire09.jpg                	1	1	1	mn_fire09.jpg        	movNat   	3	fire      	15	fire09      	158	not_alive	0	moves	1	natural 	1	n	0	0    	 	0.0	0	81.2789550999878	81.37885470001491	0.099899600027129
50913	100	8	stimuli\nonmovNat\crystal\nmn_crystal07.jpg      	1	1	1	nmn_crystal07.jpg    	nonmovNat	5	crystal   	10	crystal07   	106	not_alive	0	still	0	natural 	1	n	0	0    	 	0.0	0	81.4293265000451	81.52889700001109	0.09957049996592099
51063	100	9	stimuli\animals\dog\animal_dog10.jpg             	1	1	1	animal_dog10.jpg     	animals  	0	dog       	11	dog10       	119	alive    	1	moves	1	natural 	1	n	0	0    	 	0.0	0	81.57894240005409	81.6788590999786	0.0999166999245062
51213	100	10	stimuli\movArt\car\ma_car10.jpg                  	1	1	1	ma_car10.jpg         	movArt   	2	car       	5	car10       	59	not_alive	0	moves	1	artefact	0	n	0	0    	 	0.0	0	81.7290260000154	81.8289822000079	0.09995619999244802
51363	100	11	stimuli\plant\flower\plant_flower09.jpg          	1	1	1	plant_flower09.jpg   	plant    	6	flower    	16	flower09    	168	alive    	1	still	0	natural 	1	n	0	0    	 	0.0	0	81.8789375000633	81.97886480006851	0.0999273000052198
51513	100	12	stimuli\plant2\palmtree\plant_palmtree08.jpg     	1	1	1	plant_palmtree08.jpg 	plant2   	7	palmtree  	27	palmtree08  	277	alive    	1	still	0	natural 	1	n	0	0    	 	0.0	0	82.0289342000615	82.12886379996779	0.0999295999063178
51663	100	13	stimuli\movArt\bus\ma_bus07.jpg                  	1	1	1	ma_bus07.jpg         	movArt   	2	bus       	3	bus07       	36	not_alive	0	moves	1	artefact	0	n	0	0    	 	0.0	0	82.17894500005059	82.2788707000436	0.0999256999930366
51813	100	14	stimuli\nonmovArt\lock\nma_lock04.jpg            	1	1	1	nma_lock04.jpg       	nonmovArt	4	lock      	24	lock04      	243	not_alive	0	still	0	artefact	0	n	0	0    	 	0.0	0	82.3289364000084	82.4288511000341	0.0999147000256925
51963	100	15	stimuli\nonmovNat\rock\nmn_rock08.jpg            	1	1	1	nmn_rock08.jpg       	nonmovNat	5	rock      	30	rock08      	307	not_alive	0	still	0	natural 	1	n	0	0    	 	0.0	0	82.47894259996251	82.5788750000065	0.0999324000440538
52113	100	16	stimuli\animals2\pigeon\animal_pigeon06.jpg      	1	1	1	animal_pigeon06.jpg  	animals2 	1	pigeon    	28	pigeon06    	285	alive    	1	moves	1	natural 	1	n	0	0    	 	0.0	0	82.6289357000496	82.728857900016	0.0999221999663859
52263	100	17	stimuli\plant2\lemontree\plant_lemontree10.jpg   	1	1	1	plant_lemontree10.jpg	plant2   	7	lemontree 	22	lemontree10 	229	alive    	1	still	0	natural 	1	n	0	0    	 	0.0	0	82.77892910002271	82.8788535000058	0.0999243999831378
52413	100	18	stimuli\animals2\whale\animal_whale06.jpg        	1	1	1	animal_whale06.jpg   	animals2 	1	whale     	39	whale06     	395	alive    	1	moves	1	natural 	1	n	0	0    	 	0.0	0	82.928937299992	83.0288462999742	0.0999089999822899
52563	100	19	stimuli\movArt\train\ma_train07.jpg              	1	1	1	ma_train07.jpg       	movArt   	2	train     	34	train07     	346	not_alive	0	moves	1	artefact	0	n	0	0    	 	0.0	0	83.07894300005859	83.1788511000341	0.0999080999754369
52713	100	20	stimuli\animals2\bee\animal_bee09.jpg            	1	1	1	animal_bee09.jpg     	animals2 	1	bee       	0	bee09       	8	alive    	1	moves	1	natural 	1	n	0	0    	 	0.0	0	83.2289443999762	83.3288751000073	0.0999307000311091
52863	100	21	stimuli\animals\dolphin\animal_dolphin03.jpg     	1	1	1	animal_dolphin03.jpg 	animals  	0	dolphin   	12	dolphin03   	122	alive    	1	moves	1	natural 	1	n	1	0    	 	0.0	0	83.378930100007	83.47885650000529	0.0999263999983668
53013	100	22	stimuli\movNat\river\mn_river09.jpg              	1	1	1	mn_river09.jpg       	movNat   	3	river     	29	river09     	298	not_alive	0	moves	1	natural 	1	n	0	0    	 	0.0	0	83.52905210002791	83.62883990001859	0.0997877999907359
53163	100	23	stimuli\nonmovArt\headphones\nma_headphones02.jpg	1	1	1	nma_headphones02.jpg 	nonmovArt	4	headphones	18	headphones02	181	not_alive	0	still	0	artefact	0	n	0	1    	f	0.3920643000165	1	83.679009100073	83.7788435000693	0.0998343999963253
53313	100	24	stimuli\animals\eagle\animal_eagle08.jpg         	1	1	1	animal_eagle08.jpg   	animals  	0	eagle     	13	eagle08     	137	alive    	1	moves	1	natural 	1	n	0	0    	 	0.0	0	83.8289232000243	83.92883170000279	0.0999084999784827
53463	100	25	stimuli\plant2\palmtree\plant_palmtree06.jpg     	1	1	1	plant_palmtree06.jpg 	plant2   	7	palmtree  	27	palmtree06  	275	alive    	1	still	0	natural 	1	n	0	0    	 	0.0	0	83.9789171000011	84.07883660006341	0.0999195000622421
53613	100	26	stimuli\movNat\river\mn_river10.jpg              	1	1	1	mn_river10.jpg       	movNat   	3	river     	29	river10     	299	not_alive	0	moves	1	natural 	1	n	0	0    	 	0.0	0	84.12891660002059	84.2288408000022	0.0999241999816149
53763	100	27	stimuli\animals\eagle\animal_eagle09.jpg         	1	1	1	animal_eagle09.jpg   	animals  	0	eagle     	13	eagle09     	138	alive    	1	moves	1	natural 	1	n	0	0    	 	0.0	0	84.2789222999709	84.3788298000582	0.0999075000872835
53913	100	28	stimuli\animals2\whale\animal_whale09.jpg        	1	1	1	animal_whale09.jpg   	animals2 	1	whale     	39	whale09     	398	alive    	1	moves	1	natural 	1	n	0	0    	 	0.0	0	84.4289178999607	84.52881659998091	0.09989870002027601
54063	100	29	stimuli\nonmovNat\cliff\nmn_cliff10.jpg          	1	1	1	nmn_cliff10.jpg      	nonmovNat	5	cliff     	7	cliff10     	79	not_alive	0	still	0	natural 	1	n	0	0    	 	0.0	0	84.5789247000357	84.67884870001579	0.099923999980092
54213	100	30	stimuli\movArt\boat\ma_boat05.jpg                	1	1	1	ma_boat05.jpg        	movArt   	2	boat      	2	boat05      	24	not_alive	0	moves	1	artefact	0	n	0	0    	 	0.0	0	84.72889230004509	84.8288276999956	0.0999353999504819
54363	100	31	stimuli\movNat\river\mn_river07.jpg              	1	1	1	mn_river07.jpg       	movNat   	3	river     	29	river07     	296	not_alive	0	moves	1	natural 	1	n	0	0    	 	0.0	0	84.8789186000358	84.9788336000638	0.0999150000279769
54513	100	32	stimuli\animals\dog\animal_dog08.jpg             	1	1	1	animal_dog08.jpg     	animals  	0	dog       	11	dog08       	117	alive    	1	moves	1	natural 	1	n	0	0    	 	0.0	0	85.02892249997241	85.1288445000537	0.0999220000812783
54663	100	33	stimuli\movArt\boat\ma_boat03.jpg                	1	1	1	ma_boat03.jpg        	movArt   	2	boat      	2	boat03      	22	not_alive	0	moves	1	artefact	0	n	0	0    	 	0.0	0	85.17891819996291	85.2788823000155	0.0999641000526026
54813	100	34	stimuli\plant\cactus\plant_cactus06.jpg          	1	1	1	plant_cactus06.jpg   	plant    	6	cactus    	4	cactus06    	45	alive    	1	still	0	natural 	1	n	0	0    	 	0.0	0	85.3289866000414	85.4288306999952	0.0998440999537706
54963	100	35	stimuli\movArt\car\ma_car07.jpg                  	1	1	1	ma_car07.jpg         	movArt   	2	car       	5	car07       	56	not_alive	0	moves	1	artefact	0	n	0	0    	 	0.0	0	85.47890280000871	85.578843700001	0.0999408999923616
55113	100	36	stimuli\movNat\hotspring\mn_hotspring04.jpg      	1	1	1	mn_hotspring04.jpg   	movNat   	3	hotspring 	21	hotspring04 	213	not_alive	0	moves	1	natural 	1	n	0	0    	 	0.0	0	85.6289164000191	85.7280460000038	0.0991295999847352
55262	100	37	stimuli\plant\vine\plant_vine09.jpg              	1	1	1	plant_vine09.jpg     	plant    	6	vine      	36	vine09      	368	alive    	1	still	0	natural 	1	n	0	0    	 	0.0	0	85.77805610001091	85.87804770004	0.0999916000291705
55412	100	38	stimuli\nonmovNat\cliff\nmn_cliff05.jpg          	1	1	1	nmn_cliff05.jpg      	nonmovNat	5	cliff     	7	cliff05     	74	not_alive	0	still	0	natural 	1	n	0	0    	 	0.0	0	85.9280550000258	86.0280458000489	0.0999908000230789
55562	100	39	stimuli\plant2\moss\plant_moss10.jpg             	1	1	1	plant_moss10.jpg     	plant2   	7	moss      	25	moss10      	259	alive    	1	still	0	natural 	1	n	0	0    	 	0.0	0	86.0780535000376	86.178044600063	0.0999911000253632
55712	100	40	stimuli\movNat\waves\mn_waves03.jpg              	1	1	1	mn_waves03.jpg       	movNat   	3	waves     	38	waves03     	382	not_alive	0	moves	1	natural 	1	n	0	0    	 	0.0	0	86.2280519000487	86.3280424000695	0.0999905000207945
55862	100	41	stimuli\movNat\waterfall\mn_waterfall10.jpg      	1	1	1	mn_waterfall10.jpg   	movNat   	3	waterfall 	37	waterfall10 	379	not_alive	0	moves	1	natural 	1	n	0	0    	 	0.0	0	86.3780514000682	86.478043399984	0.09999199991580099
56012	100	42	stimuli\movArt\train\ma_train04.jpg              	1	1	1	ma_train04.jpg       	movArt   	2	train     	34	train04     	343	not_alive	0	moves	1	artefact	0	n	0	0    	 	0.0	0	86.528078500065	86.62804069998671	0.0999621999217197
56162	100	43	stimuli\animals2\tiger\animal_tiger03.jpg        	1	1	1	animal_tiger03.jpg   	animals2 	1	tiger     	33	tiger03     	332	alive    	1	moves	1	natural 	1	n	0	0    	 	0.0	0	86.6780473999679	86.778038199991	0.0999908000230789
56312	100	44	stimuli\nonmovArt\headphones\nma_headphones01.jpg	1	1	1	nma_headphones01.jpg 	nonmovArt	4	headphones	18	headphones01	180	not_alive	0	still	0	artefact	0	n	0	0    	 	0.0	0	86.8280437999638	86.92803680000358	0.0999930000398308
56462	100	45	stimuli\movNat\waterfall\mn_waterfall05.jpg      	1	1	1	mn_waterfall05.jpg   	movNat   	3	waterfall 	37	waterfall05 	374	not_alive	0	moves	1	natural 	1	n	0	0    	 	0.0	0	86.97804479999469	87.0780458999798	0.100001099985093
56612	100	46	stimuli\nonmovNat\sand\nmn_sand09.jpg            	1	1	1	nmn_sand09.jpg       	nonmovNat	5	sand      	31	sand09      	318	not_alive	0	still	0	natural 	1	n	0	0    	 	0.0	0	87.1280491000507	87.2280334000243	0.0999842999735847
56762	100	47	stimuli\plant\cactus\plant_cactus03.jpg          	1	1	1	plant_cactus03.jpg   	plant    	6	cactus    	4	cactus03    	42	alive    	1	still	0	natural 	1	n	0	0    	 	0.0	0	87.2780429000268	87.3780310000293	0.0999881000025198
56912	100	48	stimuli\plant\tree\plant_tree07.jpg              	1	1	1	plant_tree07.jpg     	plant    	6	tree      	35	tree07      	356	alive    	1	still	0	natural 	1	n	0	0    	 	0.0	0	87.42803960002492	87.52802730002442	0.099987699999474
57062	100	49	stimuli\plant\grass\plant_grass05.jpg            	1	1	1	plant_grass05.jpg    	plant    	6	grass     	17	grass05     	174	alive    	1	still	0	natural 	1	n	0	0    	 	0.0	0	87.5780366000254	87.6780272000469	0.099990600021556
57212	100	50	stimuli\plant\vine\plant_vine09.jpg              	1	1	1	plant_vine09.jpg     	plant    	6	vine      	36	vine09      	368	alive    	1	still	0	natural 	1	n	0	0    	 	0.0	0	87.7280391000677	87.82802809996059	0.0999889998929575
57362	100	51	stimuli\movNat\waves\mn_waves04.jpg              	1	1	1	mn_waves04.jpg       	movNat   	3	waves     	38	waves04     	383	not_alive	0	moves	1	natural 	1	n	0	0    	 	0.0	0	87.87803400005221	87.9780259999679	0.09999199991580099
57512	100	52	stimuli\nonmovArt\clothespeg\nma_clothespeg06.jpg	1	1	1	nma_clothespeg06.jpg 	nonmovArt	4	clothespeg	8	clothespeg06	85	not_alive	0	still	0	artefact	0	n	0	0    	 	0.0	0	88.0280342999613	88.1280244999798	0.0999902000185102
57662	100	53	stimuli\plant2\lemontree\plant_lemontree09.jpg   	1	1	1	plant_lemontree09.jpg	plant2   	7	lemontree 	22	lemontree09 	228	alive    	1	still	0	natural 	1	n	0	0    	 	0.0	0	88.1780299000675	88.2780468000565	0.100016899988986
57812	100	54	stimuli\nonmovNat\sand\nmn_sand02.jpg            	1	1	1	nmn_sand02.jpg       	nonmovNat	5	sand      	31	sand02      	311	not_alive	0	still	0	natural 	1	n	0	0    	 	0.0	0	88.3280323999934	88.4280205999967	0.0999882000032812
57962	100	55	stimuli\animals\horse\animal_horse07.jpg         	1	1	1	animal_horse07.jpg   	animals  	0	horse     	20	horse07     	206	alive    	1	moves	1	natural 	1	n	0	0    	 	0.0	0	88.47802899999078	88.578021000023	0.0999920000322163
58112	100	56	stimuli\animals\cat\animal_cat10.jpg             	1	1	1	animal_cat10.jpg     	animals  	0	cat       	6	cat10       	69	alive    	1	moves	1	natural 	1	n	0	0    	 	0.0	0	88.6280273000011	88.72801830002571	0.0999910000246018
58262	100	57	stimuli\animals2\lemur\animal_lemur09.jpg        	1	1	1	animal_lemur09.jpg   	animals2 	1	lemur     	23	lemur09     	238	alive    	1	moves	1	natural 	1	n	0	0    	 	0.0	0	88.7780250000069	88.87804260000121	0.10001759999431699
58412	100	58	stimuli\movArt\bus\ma_bus02.jpg                  	1	1	1	ma_bus02.jpg         	movArt   	2	bus       	3	bus02       	31	not_alive	0	moves	1	artefact	0	n	0	0    	 	0.0	0	88.9280251000309	89.02802490000609	0.099999799975194
58562	100	59	stimuli\animals\dolphin\animal_dolphin05.jpg     	1	1	1	animal_dolphin05.jpg 	animals  	0	dolphin   	12	dolphin05   	124	alive    	1	moves	1	natural 	1	n	0	0    	 	0.0	0	89.0780215000268	89.1780122000491	0.0999907000223174
58712	100	60	stimuli\nonmovArt\bench\nma_bench02.jpg          	1	1	1	nma_bench02.jpg      	nonmovArt	4	bench     	1	bench02     	11	not_alive	0	still	0	artefact	0	n	0	0    	 	0.0	0	89.2280195000349	89.3280123999575	0.09999289992265402
58862	100	61	stimuli\nonmovNat\crystal\nmn_crystal05.jpg      	1	1	1	nmn_crystal05.jpg    	nonmovNat	5	crystal   	10	crystal05   	104	not_alive	0	still	0	natural 	1	n	0	0    	 	0.0	0	89.37802609999201	89.4780116999755	0.0999855999834835
59012	100	62	stimuli\nonmovArt\mug\nma_mug09.jpg              	1	1	1	nma_mug09.jpg        	nonmovArt	4	mug       	26	mug09       	268	not_alive	0	still	0	artefact	0	n	0	0    	 	0.0	0	89.5280140000395	89.628012000001	0.0999979999614879
59162	100	63	stimuli\nonmovNat\rock\nmn_rock01.jpg            	1	1	1	nmn_rock01.jpg       	nonmovNat	5	rock      	30	rock01      	300	not_alive	0	still	0	natural 	1	n	1	0    	 	0.0	0	89.67801569995942	89.7780065999832	0.0999909000238403
59312	100	64	stimuli\animals2\lemur\animal_lemur08.jpg        	1	1	1	animal_lemur08.jpg   	animals2 	1	lemur     	23	lemur08     	237	alive    	1	moves	1	natural 	1	n	0	0    	 	0.0	0	89.8280121000717	89.9280036999844	0.0999915999127552
59462	100	65	stimuli\nonmovNat\cliff\nmn_cliff09.jpg          	1	1	1	nmn_cliff09.jpg      	nonmovNat	5	cliff     	7	cliff09     	78	not_alive	0	still	0	natural 	1	n	0	1    	f	0.292125100037083	1	89.97801249998159	90.0780028000008	0.0999903000192716
59612	100	66	stimuli\plant2\lemontree\plant_lemontree08.jpg   	1	1	1	plant_lemontree08.jpg	plant2   	7	lemontree 	22	lemontree08 	227	alive    	1	still	0	natural 	1	n	0	0    	 	0.0	0	90.1280123000033	90.22799859999209	0.0999862999888137
59762	100	67	stimuli\plant2\moss\plant_moss10.jpg             	1	1	1	plant_moss10.jpg     	plant2   	7	moss      	25	moss10      	259	alive    	1	still	0	natural 	1	n	0	0    	 	0.0	0	90.278009600006	90.37799830001309	0.0999887000070884
59912	100	68	stimuli\nonmovArt\lock\nma_lock07.jpg            	1	1	1	nma_lock07.jpg       	nonmovArt	4	lock      	24	lock07      	246	not_alive	0	still	0	artefact	0	n	0	0    	 	0.0	0	90.42800720001101	90.52799480000981	0.0999875999987125
60062	100	69	stimuli\animals2\bee\animal_bee05.jpg            	1	1	1	animal_bee05.jpg     	animals2 	1	bee       	0	bee05       	4	alive    	1	moves	1	natural 	1	n	0	0    	 	0.0	0	90.57800570002291	90.6780130000552	0.10000730003230301
60212	100	70	stimuli\nonmovArt\headphones\nma_headphones01.jpg	1	1	1	nma_headphones01.jpg 	nonmovArt	4	headphones	18	headphones01	180	not_alive	0	still	0	artefact	0	n	0	0    	 	0.0	0	90.72800690005529	90.8279960000655	0.0999891000101342
60362	100	71	stimuli\plant\flower\plant_flower03.jpg          	1	1	1	plant_flower03.jpg   	plant    	6	flower    	16	flower03    	162	alive    	1	still	0	natural 	1	n	0	0    	 	0.0	0	90.8780030000489	90.97799000004309	0.0999869999941438
60512	100	72	stimuli\animals\dog\animal_dog10.jpg             	1	1	1	animal_dog10.jpg     	animals  	0	dog       	11	dog10       	119	alive    	1	moves	1	natural 	1	n	0	0    	 	0.0	0	91.02800230006692	91.12799269997049	0.0999903999036178
60662	100	73	stimuli\animals2\tiger\animal_tiger06.jpg        	1	1	1	animal_tiger06.jpg   	animals2 	1	tiger     	33	tiger06     	335	alive    	1	moves	1	natural 	1	n	0	0    	 	0.0	0	91.17799880006349	91.27798899996559	0.0999901999020949
60812	100	74	stimuli\nonmovNat\shell\nmn_shell10.jpg          	1	1	1	nmn_shell10.jpg      	nonmovNat	5	shell     	32	shell10     	329	not_alive	0	still	0	natural 	1	n	0	0    	 	0.0	0	91.3280005999841	91.42798589996531	0.0999852999811992
60962	100	75	stimuli\nonmovNat\crystal\nmn_crystal03.jpg      	1	1	1	nmn_crystal03.jpg    	nonmovNat	5	crystal   	10	crystal03   	102	not_alive	0	still	0	natural 	1	n	0	0    	 	0.0	0	91.4779976999853	91.5779862999916	0.09998860000632699
61112	100	76	stimuli\plant2\palmtree\plant_palmtree05.jpg     	1	1	1	plant_palmtree05.jpg 	plant2   	7	palmtree  	27	palmtree05  	274	alive    	1	still	0	natural 	1	n	0	0    	 	0.0	0	91.6279934999766	91.7279823999852	0.0999889000086113
61262	100	77	stimuli\movNat\fire\mn_fire08.jpg                	1	1	1	mn_fire08.jpg        	movNat   	3	fire      	15	fire08      	157	not_alive	0	moves	1	natural 	1	n	0	0    	 	0.0	0	91.77799289999528	91.8779919999652	0.0999990999698638
61412	100	78	stimuli\movArt\bus\ma_bus06.jpg                  	1	1	1	ma_bus06.jpg         	movArt   	2	bus       	3	bus06       	35	not_alive	0	moves	1	artefact	0	n	0	0    	 	0.0	0	91.92799060000108	92.0279803000158	0.0999897000147029
61562	100	79	stimuli\movNat\hotspring\mn_hotspring05.jpg      	1	1	1	mn_hotspring05.jpg   	movNat   	3	hotspring 	21	hotspring05 	214	not_alive	0	moves	1	natural 	1	n	0	0    	 	0.0	0	92.07799100002741	92.1779823000543	0.0999913000268861
64845	100	80	stimuli\nonmovNat\shell\nmn_shell05.jpg          	1	2	1	nmn_shell05.jpg      	nonmovNat	5	shell     	32	shell05     	324	not_alive	0	still	0	natural 	1	n	0	0    	 	0.0	0	95.36129330005501	95.4612794000423	0.0999860999872908
64995	100	81	stimuli\plant2\clover\plant_clover05.jpg         	1	2	1	plant_clover05.jpg   	plant2   	7	clover    	9	clover05    	94	alive    	1	still	0	natural 	1	n	0	0    	 	0.0	0	95.5112847000128	95.61127370002208	0.0999890000093728
65145	100	82	stimuli\animals\horse\animal_horse04.jpg         	1	2	1	animal_horse04.jpg   	animals  	0	horse     	20	horse04     	203	alive    	1	moves	1	natural 	1	n	0	0    	 	0.0	0	95.6612848000368	95.76127620006442	0.0999914000276476
65295	100	83	stimuli\plant\grass\plant_grass06.jpg            	1	2	1	plant_grass06.jpg    	plant    	6	grass     	17	grass06     	175	alive    	1	still	0	natural 	1	n	0	0    	 	0.0	0	95.8112956000259	95.91127330006559	0.0999777000397443
65445	100	84	stimuli\plant\flower\plant_flower06.jpg          	1	2	1	plant_flower06.jpg   	plant    	6	flower    	16	flower06    	165	alive    	1	still	0	natural 	1	n	0	0    	 	0.0	0	95.96128010004759	96.06127100007141	0.0999909000238403
65595	100	85	stimuli\nonmovArt\mug\nma_mug10.jpg              	1	2	1	nma_mug10.jpg        	nonmovArt	4	mug       	26	mug10       	269	not_alive	0	still	0	artefact	0	n	0	0    	 	0.0	0	96.1112781000556	96.2112683999585	0.0999902999028563
65745	100	86	stimuli\plant\grass\plant_grass07.jpg            	1	2	1	plant_grass07.jpg    	plant    	6	grass     	17	grass07     	176	alive    	1	still	0	natural 	1	n	0	0    	 	0.0	0	96.261277899961	96.36128680000549	0.100008900044486
65895	100	87	stimuli\plant2\fern\plant_fern09.jpg             	1	2	1	plant_fern09.jpg     	plant2   	7	fern      	14	fern09      	148	alive    	1	still	0	natural 	1	n	0	0    	 	0.0	0	96.41126740002069	96.5112897000508	0.100022300030105
66045	100	88	stimuli\nonmovNat\shell\nmn_shell08.jpg          	1	2	1	nmn_shell08.jpg      	nonmovNat	5	shell     	32	shell08     	327	not_alive	0	still	0	natural 	1	n	0	0    	 	0.0	0	96.56127820000981	96.66126590000928	0.099987699999474
66195	100	89	stimuli\movNat\fire\mn_fire01.jpg                	1	2	1	mn_fire01.jpg        	movNat   	3	fire      	15	fire01      	150	not_alive	0	moves	1	natural 	1	n	0	0    	 	0.0	0	96.71127069997601	96.81126230000521	0.0999916000291705
66345	100	90	stimuli\movArt\train\ma_train05.jpg              	1	2	1	ma_train05.jpg       	movArt   	2	train     	34	train05     	344	not_alive	0	moves	1	artefact	0	n	0	0    	 	0.0	0	96.8612716000062	96.96126010001171	0.0999885000055655
66495	100	91	stimuli\animals2\pigeon\animal_pigeon04.jpg      	1	2	1	animal_pigeon04.jpg  	animals2 	1	pigeon    	28	pigeon04    	283	alive    	1	moves	1	natural 	1	n	0	0    	 	0.0	0	97.01126739999741	97.111257600016	0.0999902000185102
66645	100	92	stimuli\nonmovArt\lock\nma_lock03.jpg            	1	2	1	nma_lock03.jpg       	nonmovArt	4	lock      	24	lock03      	242	not_alive	0	still	0	artefact	0	n	0	0    	 	0.0	0	97.1612691000337	97.26125660003159	0.099987499997951
66795	100	93	stimuli\animals2\whale\animal_whale05.jpg        	1	2	1	animal_whale05.jpg   	animals2 	1	whale     	39	whale05     	394	alive    	1	moves	1	natural 	1	n	0	0    	 	0.0	0	97.31126430002041	97.4112547000404	0.0999904000200331
66945	100	94	stimuli\nonmovArt\clothespeg\nma_clothespeg05.jpg	1	2	1	nma_clothespeg05.jpg 	nonmovArt	4	clothespeg	8	clothespeg05	84	not_alive	0	still	0	artefact	0	n	0	0    	 	0.0	0	97.4612664000597	97.5612579999724	0.0999915999127552
67095	100	95	stimuli\animals2\bee\animal_bee02.jpg            	1	2	1	animal_bee02.jpg     	animals2 	1	bee       	0	bee02       	1	alive    	1	moves	1	natural 	1	n	0	0    	 	0.0	0	97.6112615000457	97.7120243000099	0.100762799964286
67246	100	96	stimuli\movArt\boat\ma_boat10.jpg                	1	2	1	ma_boat10.jpg        	movArt   	2	boat      	2	boat10      	29	not_alive	0	moves	1	artefact	0	n	0	0    	 	0.0	0	97.762101600063	97.8620254000416	0.0999237999785691
67396	100	97	stimuli\animals\cat\animal_cat07.jpg             	1	2	1	animal_cat07.jpg     	animals  	0	cat       	6	cat07       	66	alive    	1	moves	1	natural 	1	n	0	0    	 	0.0	0	97.91211450006809	98.0120060000336	0.0998914999654516
67546	100	98	stimuli\animals\dolphin\animal_dolphin01.jpg     	1	2	1	animal_dolphin01.jpg 	animals  	0	dolphin   	12	dolphin01   	120	alive    	1	moves	1	natural 	1	n	0	0    	 	0.0	0	98.06212290003891	98.16202070005241	0.0998978000134229
67696	100	99	stimuli\movNat\waterfall\mn_waterfall08.jpg      	1	2	1	mn_waterfall08.jpg   	movNat   	3	waterfall 	37	waterfall08 	377	not_alive	0	moves	1	natural 	1	n	0	0    	 	0.0	0	98.2120952999685	98.3119995000306	0.0999042000621557
67846	100	100	stimuli\movNat\hotspring\mn_hotspring02.jpg      	1	2	1	mn_hotspring02.jpg   	movNat   	3	hotspring 	21	hotspring02 	211	not_alive	0	moves	1	natural 	1	n	0	0    	 	0.0	0	98.36210829997441	98.46201370004559	0.0999054000712931
67996	100	101	stimuli\plant2\clover\plant_clover07.jpg         	1	2	1	plant_clover07.jpg   	plant2   	7	clover    	9	clover07    	96	alive    	1	still	0	natural 	1	n	0	0    	 	0.0	0	98.5120857000584	98.6119965000544	0.099910799995996
68146	100	102	stimuli\plant\cactus\plant_cactus09.jpg          	1	2	1	plant_cactus09.jpg   	plant    	6	cactus    	4	cactus09    	48	alive    	1	still	0	natural 	1	n	0	0    	 	0.0	0	98.6620994000696	98.76202709996141	0.0999276998918503
68296	100	103	stimuli\nonmovNat\sand\nmn_sand09.jpg            	1	2	1	nmn_sand09.jpg       	nonmovNat	5	sand      	31	sand09      	318	not_alive	0	still	0	natural 	1	n	0	0    	 	0.0	0	98.8121012999909	98.91201510000971	0.0999138000188395
68446	100	104	stimuli\plant2\fern\plant_fern03.jpg             	1	2	1	plant_fern03.jpg     	plant2   	7	fern      	14	fern03      	142	alive    	1	still	0	natural 	1	n	0	0    	 	0.0	0	98.96210120001341	99.06201480003071	0.0999136000173166
68596	100	105	stimuli\plant2\moss\plant_moss03.jpg             	1	2	1	plant_moss03.jpg     	plant2   	7	moss      	25	moss03      	252	alive    	1	still	0	natural 	1	n	0	0    	 	0.0	0	99.1120903000701	99.2120109000243	0.0999205999542027
68746	100	106	stimuli\animals2\pigeon\animal_pigeon06.jpg      	1	2	1	animal_pigeon06.jpg  	animals2 	1	pigeon    	28	pigeon06    	285	alive    	1	moves	1	natural 	1	n	1	0    	 	0.0	0	99.2620936000021	99.36202050000429	0.09992690000217401
68896	100	107	stimuli\plant2\fern\plant_fern10.jpg             	1	2	1	plant_fern10.jpg     	plant2   	7	fern      	14	fern10      	149	alive    	1	still	0	natural 	1	n	0	0    	 	0.0	0	99.41208280005958	99.51199570007161	0.0999129000119865
69046	100	108	stimuli\plant\tree\plant_tree04.jpg              	1	2	1	plant_tree04.jpg     	plant    	6	tree      	35	tree04      	353	alive    	1	still	0	natural 	1	n	0	1    	f	0.39202819997444704	1	99.56208920001521	99.6620140000014	0.0999247999861836
69196	100	109	stimuli\animals2\lemur\animal_lemur02.jpg        	1	2	1	animal_lemur02.jpg   	animals2 	1	lemur     	23	lemur02     	231	alive    	1	moves	1	natural 	1	n	0	0    	 	0.0	0	99.7120806999737	99.81200310005809	0.0999224000843241
69346	100	110	stimuli\movNat\waves\mn_waves09.jpg              	1	2	1	mn_waves09.jpg       	movNat   	3	waves     	38	waves09     	388	not_alive	0	moves	1	natural 	1	n	0	0    	 	0.0	0	99.86209409998258	99.961959599983	0.0998655000003054
69496	100	111	stimuli\animals\eagle\animal_eagle04.jpg         	1	2	1	animal_eagle04.jpg   	animals  	0	eagle     	13	eagle04     	133	alive    	1	moves	1	natural 	1	n	0	0    	 	0.0	0	100.01208220003201	100.11199600005101	0.0999138000188395
69646	100	112	stimuli\plant\vine\plant_vine06.jpg              	1	2	1	plant_vine06.jpg     	plant    	6	vine      	36	vine06      	365	alive    	1	still	0	natural 	1	n	0	0    	 	0.0	0	100.162087099976	100.26201259996701	0.0999254999915138
69796	100	113	stimuli\animals\horse\animal_horse08.jpg         	1	2	1	animal_horse08.jpg   	animals  	0	horse     	20	horse08     	207	alive    	1	moves	1	natural 	1	n	0	0    	 	0.0	0	100.312073100009	100.411990800058	0.09991770004853599
69946	100	114	stimuli\animals2\tiger\animal_tiger03.jpg        	1	2	1	animal_tiger03.jpg   	animals2 	1	tiger     	33	tiger03     	332	alive    	1	moves	1	natural 	1	n	0	0    	 	0.0	0	100.46208179998199	100.56200300005699	0.0999212000751868
70096	100	115	stimuli\nonmovArt\bench\nma_bench07.jpg          	1	2	1	nma_bench07.jpg      	nonmovArt	4	bench     	1	bench07     	16	not_alive	0	still	0	artefact	0	n	1	0    	 	0.0	0	100.612061599968	100.711999900057	0.0999383000889793
70246	100	116	stimuli\movArt\helicopter\ma_helicopter01.jpg    	1	2	1	ma_helicopter01.jpg  	movArt   	2	helicopter	19	helicopter01	190	not_alive	0	moves	1	artefact	0	n	0	0    	 	0.0	0	100.762082400033	100.861993000028	0.0999105999944731
70396	100	117	stimuli\plant\tree\plant_tree08.jpg              	1	2	1	plant_tree08.jpg     	plant    	6	tree      	35	tree08      	357	alive    	1	still	0	natural 	1	n	0	1    	f	0.39198950002901295	1	100.912073099986	101.01197710004601	0.0999040000606328
70546	100	118	stimuli\nonmovArt\clothespeg\nma_clothespeg06.jpg	1	2	1	nma_clothespeg06.jpg 	nonmovArt	4	clothespeg	8	clothespeg06	85	not_alive	0	still	0	artefact	0	n	0	0    	 	0.0	0	101.06207109999399	101.161983900005	0.099912800011225
70696	100	119	stimuli\nonmovArt\mug\nma_mug10.jpg              	1	2	1	nma_mug10.jpg        	nonmovArt	4	mug       	26	mug10       	269	not_alive	0	still	0	artefact	0	n	0	0    	 	0.0	0	101.21204959997	101.31198280001999	0.0999332000501454
70846	100	120	stimuli\nonmovNat\cliff\nmn_cliff02.jpg          	1	2	1	nmn_cliff02.jpg      	nonmovNat	5	cliff     	7	cliff02     	71	not_alive	0	still	0	natural 	1	n	0	0    	 	0.0	0	101.36206710001	101.46199950005399	0.0999324000440538
70996	100	121	stimuli\plant2\fern\plant_fern05.jpg             	1	2	1	plant_fern05.jpg     	plant2   	7	fern      	14	fern05      	144	alive    	1	still	0	natural 	1	n	0	0    	 	0.0	0	101.51206690003201	101.611964900047	0.0998980000149458
71146	100	122	stimuli\nonmovNat\sand\nmn_sand03.jpg            	1	2	1	nmn_sand03.jpg       	nonmovNat	5	sand      	31	sand03      	312	not_alive	0	still	0	natural 	1	n	0	0    	 	0.0	0	101.661987900035	101.762096800026	0.10010889999102801
71296	100	123	stimuli\nonmovNat\cliff\nmn_cliff03.jpg          	1	2	1	nmn_cliff03.jpg      	nonmovNat	5	cliff     	7	cliff03     	72	not_alive	0	still	0	natural 	1	n	1	0    	 	0.0	0	101.812275000033	101.912118599983	0.0998435999499634
71446	100	124	stimuli\movNat\hotspring\mn_hotspring03.jpg      	1	2	1	mn_hotspring03.jpg   	movNat   	3	hotspring 	21	hotspring03 	212	not_alive	0	moves	1	natural 	1	n	0	0    	 	0.0	0	101.96209869999399	102.06198670004999	0.0998880000552162
71596	100	125	stimuli\nonmovArt\lock\nma_lock04.jpg            	1	2	1	nma_lock04.jpg       	nonmovArt	4	lock      	24	lock04      	243	not_alive	0	still	0	artefact	0	n	0	1    	f	0.291817100020126	1	102.112072700053	102.211986999959	0.0999142999062314
71746	100	126	stimuli\animals\eagle\animal_eagle09.jpg         	1	2	1	animal_eagle09.jpg   	animals  	0	eagle     	13	eagle09     	138	alive    	1	moves	1	natural 	1	n	0	0    	 	0.0	0	102.262086600065	102.361996900057	0.0999102999921888
71896	100	127	stimuli\plant2\clover\plant_clover08.jpg         	1	2	1	plant_clover08.jpg   	plant2   	7	clover    	9	clover08    	97	alive    	1	still	0	natural 	1	n	0	0    	 	0.0	0	102.41207510000099	102.51199510006701	0.0999200000660494
72046	100	128	stimuli\movArt\bus\ma_bus07.jpg                  	1	2	1	ma_bus07.jpg         	movArt   	2	bus       	3	bus07       	36	not_alive	0	moves	1	artefact	0	n	0	0    	 	0.0	0	102.56208860001101	102.66199799999599	0.0999093999853357
72196	100	129	stimuli\nonmovArt\mug\nma_mug07.jpg              	1	2	1	nma_mug07.jpg        	nonmovArt	4	mug       	26	mug07       	266	not_alive	0	still	0	artefact	0	n	0	0    	 	0.0	0	102.71208149998002	102.811989800073	0.0999083000933751
72346	100	130	stimuli\nonmovArt\lock\nma_lock07.jpg            	1	2	1	nma_lock07.jpg       	nonmovArt	4	lock      	24	lock07      	246	not_alive	0	still	0	artefact	0	n	0	0    	 	0.0	0	102.86207150004299	102.961995800026	0.0999242999823764
72496	100	131	stimuli\movNat\waterfall\mn_waterfall06.jpg      	1	2	1	mn_waterfall06.jpg   	movNat   	3	waterfall 	37	waterfall06 	375	not_alive	0	moves	1	natural 	1	n	0	0    	 	0.0	0	103.012067000032	103.112002999987	0.0999359999550506
72646	100	132	stimuli\movNat\waves\mn_waves02.jpg              	1	2	1	mn_waves02.jpg       	movNat   	3	waves     	38	waves02     	381	not_alive	0	moves	1	natural 	1	n	0	0    	 	0.0	0	103.162056899979	103.262003100011	0.0999462000327184
72796	100	133	stimuli\nonmovNat\sand\nmn_sand05.jpg            	1	2	1	nmn_sand05.jpg       	nonmovNat	5	sand      	31	sand05      	314	not_alive	0	still	0	natural 	1	n	0	0    	 	0.0	0	103.312081699958	103.411999200005	0.0999175000470131
72946	100	134	stimuli\plant2\palmtree\plant_palmtree05.jpg     	1	2	1	plant_palmtree05.jpg 	plant2   	7	palmtree  	27	palmtree05  	274	alive    	1	still	0	natural 	1	n	0	0    	 	0.0	0	103.462092700065	103.56215330003799	0.100060599972494
73096	100	135	stimuli\plant\flower\plant_flower05.jpg          	1	2	1	plant_flower05.jpg   	plant    	6	flower    	16	flower05    	164	alive    	1	still	0	natural 	1	n	0	0    	 	0.0	0	103.61224459996401	103.712059600046	0.0998150000814348
73246	100	136	stimuli\plant\flower\plant_flower03.jpg          	1	2	1	plant_flower03.jpg   	plant    	6	flower    	16	flower03    	162	alive    	1	still	0	natural 	1	n	0	0    	 	0.0	0	103.76204669999399	103.861981700058	0.0999350000638514
73396	100	137	stimuli\animals2\pigeon\animal_pigeon03.jpg      	1	2	1	animal_pigeon03.jpg  	animals2 	1	pigeon    	28	pigeon03    	282	alive    	1	moves	1	natural 	1	n	0	0    	 	0.0	0	103.912051700056	104.011995000066	0.0999433000106364
73546	100	138	stimuli\plant\tree\plant_tree09.jpg              	1	2	1	plant_tree09.jpg     	plant    	6	tree      	35	tree09      	358	alive    	1	still	0	natural 	1	n	0	0    	 	0.0	0	104.062041099998	104.16197380004401	0.0999327000463381
73696	100	139	stimuli\nonmovArt\bench\nma_bench10.jpg          	1	2	1	nma_bench10.jpg      	nonmovArt	4	bench     	1	bench10     	19	not_alive	0	still	0	artefact	0	n	0	0    	 	0.0	0	104.212061800063	104.311969700037	0.09990789997391401
73846	100	140	stimuli\animals\dolphin\animal_dolphin10.jpg     	1	2	1	animal_dolphin10.jpg 	animals  	0	dolphin   	12	dolphin10   	129	alive    	1	moves	1	natural 	1	n	0	0    	 	0.0	0	104.362043400062	104.46196780004499	0.0999243999831378
73996	100	141	stimuli\plant2\lemontree\plant_lemontree02.jpg   	1	2	1	plant_lemontree02.jpg	plant2   	7	lemontree 	22	lemontree02 	221	alive    	1	still	0	natural 	1	n	0	0    	 	0.0	0	104.512054600054	104.611990800011	0.0999361999565735
74146	100	142	stimuli\plant\flower\plant_flower01.jpg          	1	2	1	plant_flower01.jpg   	plant    	6	flower    	16	flower01    	160	alive    	1	still	0	natural 	1	n	0	0    	 	0.0	0	104.66204239998501	104.761966799968	0.0999243999831378
74296	100	143	stimuli\animals\dog\animal_dog01.jpg             	1	2	1	animal_dog01.jpg     	animals  	0	dog       	11	dog01       	110	alive    	1	moves	1	natural 	1	n	0	0    	 	0.0	0	104.812020200072	104.9119527	0.0999324999283999
74446	100	144	stimuli\movNat\river\mn_river01.jpg              	1	2	1	mn_river01.jpg       	movNat   	3	river     	29	river01     	290	not_alive	0	moves	1	natural 	1	n	0	0    	 	0.0	0	104.96202960004999	105.061935400008	0.0999057999579236
74596	100	145	stimuli\plant\cactus\plant_cactus08.jpg          	1	2	1	plant_cactus08.jpg   	plant    	6	cactus    	4	cactus08    	47	alive    	1	still	0	natural 	1	n	0	0    	 	0.0	0	105.11202720005501	105.21194529999	0.0999180999351665
74746	100	146	stimuli\nonmovArt\bench\nma_bench09.jpg          	1	2	1	nma_bench09.jpg      	nonmovArt	4	bench     	1	bench09     	18	not_alive	0	still	0	artefact	0	n	0	0    	 	0.0	0	105.262046299991	105.361975200009	0.09992890001740301
74896	100	147	stimuli\nonmovArt\clothespeg\nma_clothespeg03.jpg	1	2	1	nma_clothespeg03.jpg 	nonmovArt	4	clothespeg	8	clothespeg03	82	not_alive	0	still	0	artefact	0	n	0	0    	 	0.0	0	105.412111100042	105.51193779998002	0.0998266999376937
75046	100	148	stimuli\movArt\boat\ma_boat08.jpg                	1	2	1	ma_boat08.jpg        	movArt   	2	boat      	2	boat08      	27	not_alive	0	moves	1	artefact	0	n	0	0    	 	0.0	0	105.562050300068	105.66195470001499	0.0999043999472633
75196	100	149	stimuli\plant2\clover\plant_clover06.jpg         	1	2	1	plant_clover06.jpg   	plant2   	7	clover    	9	clover06    	95	alive    	1	still	0	natural 	1	n	0	0    	 	0.0	0	105.71202320000201	105.811929699965	0.0999064999632537
75346	100	150	stimuli\animals2\bee\animal_bee03.jpg            	1	2	1	animal_bee03.jpg     	animals2 	1	bee       	0	bee03       	2	alive    	1	moves	1	natural 	1	n	0	0    	 	0.0	0	105.86203780001999	105.96194279997101	0.0999049999518319
75496	100	151	stimuli\nonmovNat\crystal\nmn_crystal09.jpg      	1	2	1	nmn_crystal09.jpg    	nonmovNat	5	crystal   	10	crystal09   	108	not_alive	0	still	0	natural 	1	n	0	0    	 	0.0	0	106.01201100007201	106.111928300001	0.0999172999290749
75646	100	152	stimuli\movNat\hotspring\mn_hotspring03.jpg      	1	2	1	mn_hotspring03.jpg   	movNat   	3	hotspring 	21	hotspring03 	212	not_alive	0	moves	1	natural 	1	n	0	0    	 	0.0	0	106.162038899958	106.26194540003799	0.099906500079669
75796	100	153	stimuli\nonmovArt\bench\nma_bench09.jpg          	1	2	1	nma_bench09.jpg      	nonmovArt	4	bench     	1	bench09     	18	not_alive	0	still	0	artefact	0	n	0	0    	 	0.0	0	106.311992999981	106.41192410001499	0.0999311000341549
75946	100	154	stimuli\movArt\boat\ma_boat09.jpg                	1	2	1	ma_boat09.jpg        	movArt   	2	boat      	2	boat09      	28	not_alive	0	moves	1	artefact	0	n	0	0    	 	0.0	0	106.462044500047	106.561946799979	0.0999022999312728
76096	100	155	stimuli\animals\cat\animal_cat10.jpg             	1	2	1	animal_cat10.jpg     	animals  	0	cat       	6	cat10       	69	alive    	1	moves	1	natural 	1	n	0	0    	 	0.0	0	106.61199070001	106.711929399986	0.0999386999756097
76246	100	156	stimuli\animals2\tiger\animal_tiger05.jpg        	1	2	1	animal_tiger05.jpg   	animals2 	1	tiger     	33	tiger05     	334	alive    	1	moves	1	natural 	1	n	0	0    	 	0.0	0	106.76203320000799	106.861942899995	0.0999096999876201
76396	100	157	stimuli\movNat\hotspring\mn_hotspring06.jpg      	1	2	1	mn_hotspring06.jpg   	movNat   	3	hotspring 	21	hotspring06 	215	not_alive	0	moves	1	natural 	1	n	0	0    	 	0.0	0	106.91201710002501	107.011918300064	0.0999012000393122
76546	100	158	stimuli\animals2\lemur\animal_lemur06.jpg        	1	2	1	animal_lemur06.jpg   	animals2 	1	lemur     	23	lemur06     	235	alive    	1	moves	1	natural 	1	n	0	0    	 	0.0	0	107.06198420003099	107.162053800072	0.100069600041024
76696	100	159	stimuli\movArt\bus\ma_bus10.jpg                  	1	2	1	ma_bus10.jpg         	movArt   	2	bus       	3	bus10       	39	not_alive	0	moves	1	artefact	0	n	0	0    	 	0.0	0	107.212164400029	107.31190760002899	0.0997432000003755
80446	100	160	stimuli\nonmovNat\rock\nmn_rock09.jpg            	1	3	1	nmn_rock09.jpg       	nonmovNat	5	rock      	30	rock09      	308	not_alive	0	still	0	natural 	1	n	0	0    	 	0.0	0	110.961982600042	111.061879800051	0.0998972000088542
80596	100	161	stimuli\movArt\car\ma_car02.jpg                  	1	3	1	ma_car02.jpg         	movArt   	2	car       	5	car02       	51	not_alive	0	moves	1	artefact	0	n	0	0    	 	0.0	0	111.111957399989	111.21188179997299	0.0999243999831378
80746	100	162	stimuli\movArt\bus\ma_bus02.jpg                  	1	3	1	ma_bus02.jpg         	movArt   	2	bus       	3	bus02       	31	not_alive	0	moves	1	artefact	0	n	0	0    	 	0.0	0	111.261963700061	111.36189409997299	0.0999303999124094
80896	100	163	stimuli\animals2\tiger\animal_tiger04.jpg        	1	3	1	animal_tiger04.jpg   	animals2 	1	tiger     	33	tiger04     	333	alive    	1	moves	1	natural 	1	n	0	0    	 	0.0	0	111.411984700011	111.51188330003099	0.0998986000195145
81046	100	164	stimuli\movArt\train\ma_train01.jpg              	1	3	1	ma_train01.jpg       	movArt   	2	train     	34	train01     	340	not_alive	0	moves	1	artefact	0	n	0	0    	 	0.0	0	111.561977099977	111.661967499997	0.0999904000200331
81196	100	165	stimuli\plant\grass\plant_grass09.jpg            	1	3	1	plant_grass09.jpg    	plant    	6	grass     	17	grass09     	178	alive    	1	still	0	natural 	1	n	0	0    	 	0.0	0	111.711952700047	111.811872099992	0.0999193999450653
81346	100	166	stimuli\plant\vine\plant_vine01.jpg              	1	3	1	plant_vine01.jpg     	plant    	6	vine      	36	vine01      	360	alive    	1	still	0	natural 	1	n	0	0    	 	0.0	0	111.86195539997401	111.961869499995	0.0999141000211238
81496	100	167	stimuli\movArt\car\ma_car04.jpg                  	1	3	1	ma_car04.jpg         	movArt   	2	car       	5	car04       	53	not_alive	0	moves	1	artefact	0	n	0	0    	 	0.0	0	112.01194670004801	112.111842000042	0.0998952999943867
81646	100	168	stimuli\movNat\river\mn_river06.jpg              	1	3	1	mn_river06.jpg       	movNat   	3	river     	29	river06     	295	not_alive	0	moves	1	natural 	1	n	0	0    	 	0.0	0	112.16198380000401	112.261888700072	0.0999049000674858
81796	100	169	stimuli\animals\dolphin\animal_dolphin10.jpg     	1	3	1	animal_dolphin10.jpg 	animals  	0	dolphin   	12	dolphin10   	129	alive    	1	moves	1	natural 	1	n	0	0    	 	0.0	0	112.311949199997	112.411860399996	0.0999111999990418
81946	100	170	stimuli\animals\cat\animal_cat06.jpg             	1	3	1	animal_cat06.jpg     	animals  	0	cat       	6	cat06       	65	alive    	1	moves	1	natural 	1	n	0	0    	 	0.0	0	112.461971500074	112.561885099974	0.0999135999009013
82096	100	171	stimuli\animals\dolphin\animal_dolphin02.jpg     	1	3	1	animal_dolphin02.jpg 	animals  	0	dolphin   	12	dolphin02   	121	alive    	1	moves	1	natural 	1	n	0	0    	 	0.0	0	112.611957299989	112.71186509996201	0.0999077999731525
82246	100	172	stimuli\movArt\helicopter\ma_helicopter01.jpg    	1	3	1	ma_helicopter01.jpg  	movArt   	2	helicopter	19	helicopter01	190	not_alive	0	moves	1	artefact	0	n	0	0    	 	0.0	0	112.761962000048	112.86186100007	0.0998990000225603
82396	100	173	stimuli\movNat\waterfall\mn_waterfall09.jpg      	1	3	1	mn_waterfall09.jpg   	movNat   	3	waterfall 	37	waterfall09 	378	not_alive	0	moves	1	natural 	1	n	0	0    	 	0.0	0	112.91193479998002	113.01184759999201	0.099912800011225
82546	100	174	stimuli\plant\grass\plant_grass08.jpg            	1	3	1	plant_grass08.jpg    	plant    	6	grass     	17	grass08     	177	alive    	1	still	0	natural 	1	n	0	0    	 	0.0	0	113.061953800032	113.16185659996701	0.0999027999350801
82696	100	175	stimuli\plant2\palmtree\plant_palmtree03.jpg     	1	3	1	plant_palmtree03.jpg 	plant2   	7	palmtree  	27	palmtree03  	272	alive    	1	still	0	natural 	1	n	0	0    	 	0.0	0	113.211943799979	113.31185930001101	0.0999155000317841
82846	100	176	stimuli\plant2\moss\plant_moss09.jpg             	1	3	1	plant_moss09.jpg     	plant2   	7	moss      	25	moss09      	258	alive    	1	still	0	natural 	1	n	0	0    	 	0.0	0	113.36194640002199	113.461855800007	0.0999093999853357
82996	100	177	stimuli\plant\tree\plant_tree06.jpg              	1	3	1	plant_tree06.jpg     	plant    	6	tree      	35	tree06      	355	alive    	1	still	0	natural 	1	n	0	0    	 	0.0	0	113.51194050000001	113.61185780004601	0.0999173000454902
83146	100	178	stimuli\plant2\palmtree\plant_palmtree10.jpg     	1	3	1	plant_palmtree10.jpg 	plant2   	7	palmtree  	27	palmtree10  	279	alive    	1	still	0	natural 	1	n	0	0    	 	0.0	0	113.662046500016	113.76184749999099	0.0998009999748319
83296	100	179	stimuli\plant\cactus\plant_cactus04.jpg          	1	3	1	plant_cactus04.jpg   	plant    	6	cactus    	4	cactus04    	43	alive    	1	still	0	natural 	1	n	0	0    	 	0.0	0	113.81192350003401	113.91186820005501	0.0999447000212967
83446	100	180	stimuli\movArt\car\ma_car06.jpg                  	1	3	1	ma_car06.jpg         	movArt   	2	car       	5	car06       	55	not_alive	0	moves	1	artefact	0	n	0	0    	 	0.0	0	113.961950800032	114.061862900038	0.0999121000058949
83596	100	181	stimuli\movArt\helicopter\ma_helicopter09.jpg    	1	3	1	ma_helicopter09.jpg  	movArt   	2	helicopter	19	helicopter09	198	not_alive	0	moves	1	artefact	0	n	0	0    	 	0.0	0	114.111932700034	114.211843700032	0.0999109999975189
83746	100	182	stimuli\animals2\whale\animal_whale05.jpg        	1	3	1	animal_whale05.jpg   	animals2 	1	whale     	39	whale05     	394	alive    	1	moves	1	natural 	1	n	0	0    	 	0.0	0	114.262000699993	114.361846199958	0.0998454999644309
83896	100	183	stimuli\animals\eagle\animal_eagle06.jpg         	1	3	1	animal_eagle06.jpg   	animals  	0	eagle     	13	eagle06     	135	alive    	1	moves	1	natural 	1	n	0	0    	 	0.0	0	114.41192400001499	114.511823500041	0.0998995000263676
84046	100	184	stimuli\plant2\lemontree\plant_lemontree01.jpg   	1	3	1	plant_lemontree01.jpg	plant2   	7	lemontree 	22	lemontree01 	220	alive    	1	still	0	natural 	1	n	0	0    	 	0.0	0	114.561932799988	114.661980199977	0.10004739998839801
84196	100	185	stimuli\plant\vine\plant_vine02.jpg              	1	3	1	plant_vine02.jpg     	plant    	6	vine      	36	vine02      	361	alive    	1	still	0	natural 	1	n	0	0    	 	0.0	0	114.711921500042	114.811833200045	0.0999117000028491
84346	100	186	stimuli\movNat\fire\mn_fire06.jpg                	1	3	1	mn_fire06.jpg        	movNat   	3	fire      	15	fire06      	155	not_alive	0	moves	1	natural 	1	n	0	0    	 	0.0	0	114.861921300064	114.96184740006001	0.0999260999960824
84496	100	187	stimuli\plant2\moss\plant_moss04.jpg             	1	3	1	plant_moss04.jpg     	plant2   	7	moss      	25	moss04      	253	alive    	1	still	0	natural 	1	n	0	0    	 	0.0	0	115.011910100002	115.111819599988	0.0999094999860972
84646	100	188	stimuli\animals\horse\animal_horse05.jpg         	1	3	1	animal_horse05.jpg   	animals  	0	horse     	20	horse05     	204	alive    	1	moves	1	natural 	1	n	1	0    	 	0.0	0	115.161918799975	115.26184190006501	0.0999231000896543
84796	100	189	stimuli\plant2\lemontree\plant_lemontree03.jpg   	1	3	1	plant_lemontree03.jpg	plant2   	7	lemontree 	22	lemontree03 	222	alive    	1	still	0	natural 	1	n	0	0    	 	0.0	0	115.311910200049	115.41183700005101	0.0999268000014126
84946	100	190	stimuli\plant2\clover\plant_clover06.jpg         	1	3	1	plant_clover06.jpg   	plant2   	7	clover    	9	clover06    	95	alive    	1	still	0	natural 	1	n	1	0    	 	0.0	0	115.461914099986	115.56183500005899	0.0999209000729024
85096	100	191	stimuli\movNat\waves\mn_waves10.jpg              	1	3	1	mn_waves10.jpg       	movNat   	3	waves     	38	waves10     	389	not_alive	0	moves	1	natural 	1	n	0	0    	 	0.0	0	115.611903600045	115.71182129997801	0.0999176999321207
85246	100	192	stimuli\movArt\boat\ma_boat02.jpg                	1	3	1	ma_boat02.jpg        	movArt   	2	boat      	2	boat02      	21	not_alive	0	moves	1	artefact	0	n	0	1    	f	0.29203680006321503	1	115.761891799979	115.861864899984	0.0999731000047177
85396	100	193	stimuli\plant\grass\plant_grass03.jpg            	1	3	1	plant_grass03.jpg    	plant    	6	grass     	17	grass03     	172	alive    	1	still	0	natural 	1	n	0	1    	f	0.54195730003994	1	115.911930100061	116.011892999988	0.0999628999270498
85546	100	194	stimuli\movNat\waterfall\mn_waterfall02.jpg      	1	3	1	mn_waterfall02.jpg   	movNat   	3	waterfall 	37	waterfall02 	371	not_alive	0	moves	1	natural 	1	n	0	0    	 	0.0	0	116.061989999958	116.161851200042	0.0998612000839784
85696	100	195	stimuli\animals2\whale\animal_whale04.jpg        	1	3	1	animal_whale04.jpg   	animals2 	1	whale     	39	whale04     	393	alive    	1	moves	1	natural 	1	n	0	0    	 	0.0	0	116.211933800019	116.31181189999901	0.0998780999798327
85846	100	196	stimuli\nonmovArt\mug\nma_mug04.jpg              	1	3	1	nma_mug04.jpg        	nonmovArt	4	mug       	26	mug04       	263	not_alive	0	still	0	artefact	0	n	0	0    	 	0.0	0	116.36191720003299	116.461805299972	0.0998880999395623
85996	100	197	stimuli\nonmovNat\crystal\nmn_crystal08.jpg      	1	3	1	nmn_crystal08.jpg    	nonmovNat	5	crystal   	10	crystal08   	107	not_alive	0	still	0	natural 	1	n	0	0    	 	0.0	0	116.51189960003799	116.611820499995	0.0999208999564871
86146	100	198	stimuli\animals2\pigeon\animal_pigeon08.jpg      	1	3	1	animal_pigeon08.jpg  	animals2 	1	pigeon    	28	pigeon08    	287	alive    	1	moves	1	natural 	1	n	0	0    	 	0.0	0	116.661950799986	116.76182250003299	0.0998717000475153
86296	100	199	stimuli\animals\horse\animal_horse03.jpg         	1	3	1	animal_horse03.jpg   	animals  	0	horse     	20	horse03     	202	alive    	1	moves	1	natural 	1	n	0	0    	 	0.0	0	116.811909200042	116.911804400035	0.0998951999936252
86446	100	200	stimuli\nonmovNat\shell\nmn_shell01.jpg          	1	3	1	nmn_shell01.jpg      	nonmovNat	5	shell     	32	shell01     	320	not_alive	0	still	0	natural 	1	n	1	0    	 	0.0	0	116.961877400056	117.06182619999201	0.0999487999361008
86596	100	201	stimuli\movArt\train\ma_train04.jpg              	1	3	1	ma_train04.jpg       	movArt   	2	train     	34	train04     	343	not_alive	0	moves	1	artefact	0	n	0	0    	 	0.0	0	117.111908299965	117.211820099968	0.0999118000036105
86746	100	202	stimuli\movArt\helicopter\ma_helicopter08.jpg    	1	3	1	ma_helicopter08.jpg  	movArt   	2	helicopter	19	helicopter08	197	not_alive	0	moves	1	artefact	0	n	0	1    	f	0.292060400010087	1	117.26191280002199	117.36183109995899	0.0999182999366894
86896	100	203	stimuli\animals\cat\animal_cat02.jpg             	1	3	1	animal_cat02.jpg     	animals  	0	cat       	6	cat02       	61	alive    	1	moves	1	natural 	1	n	0	0    	 	0.0	0	117.411881200038	117.511813199962	0.0999319999245926
87046	100	204	stimuli\nonmovArt\lock\nma_lock03.jpg            	1	3	1	nma_lock03.jpg       	nonmovArt	4	lock      	24	lock03      	242	not_alive	0	still	0	artefact	0	n	0	0    	 	0.0	0	117.561934600002	117.661827599979	0.0998929999768734
87196	100	205	stimuli\animals2\pigeon\animal_pigeon04.jpg      	1	3	1	animal_pigeon04.jpg  	animals2 	1	pigeon    	28	pigeon04    	283	alive    	1	moves	1	natural 	1	n	0	0    	 	0.0	0	117.711879799957	117.811837499961	0.0999577000038698
87346	100	206	stimuli\plant\vine\plant_vine08.jpg              	1	3	1	plant_vine08.jpg     	plant    	6	vine      	36	vine08      	367	alive    	1	still	0	natural 	1	n	0	0    	 	0.0	0	117.862011400051	117.961821399978	0.09980999992694699
87496	100	207	stimuli\plant2\fern\plant_fern04.jpg             	1	3	1	plant_fern04.jpg     	plant2   	7	fern      	14	fern04      	143	alive    	1	still	0	natural 	1	n	0	0    	 	0.0	0	118.011871600058	118.111806600005	0.0999349999474361
87646	100	208	stimuli\animals2\bee\animal_bee08.jpg            	1	3	1	animal_bee08.jpg     	animals2 	1	bee       	0	bee08       	7	alive    	1	moves	1	natural 	1	n	0	0    	 	0.0	0	118.161901899963	118.261818600004	0.0999167000409215
87796	100	209	stimuli\movNat\fire\mn_fire05.jpg                	1	3	1	mn_fire05.jpg        	movNat   	3	fire      	15	fire05      	154	not_alive	0	moves	1	natural 	1	n	0	0    	 	0.0	0	118.311880800058	118.41180110001001	0.0999202999519184
87946	100	210	stimuli\movArt\train\ma_train10.jpg              	1	3	1	ma_train10.jpg       	movArt   	2	train     	34	train10     	349	not_alive	0	moves	1	artefact	0	n	0	0    	 	0.0	0	118.46189869998501	118.561824999982	0.0999262999976053
88096	100	211	stimuli\nonmovNat\sand\nmn_sand07.jpg            	1	3	1	nmn_sand07.jpg       	nonmovNat	5	sand      	31	sand07      	316	not_alive	0	still	0	natural 	1	n	0	0    	 	0.0	0	118.611873000045	118.711801200057	0.0999282000120729
88246	100	212	stimuli\animals\dog\animal_dog03.jpg             	1	3	1	animal_dog03.jpg     	animals  	0	dog       	11	dog03       	112	alive    	1	moves	1	natural 	1	n	0	0    	 	0.0	0	118.76187980000401	118.861791500007	0.0999117000028491
88396	100	213	stimuli\nonmovArt\headphones\nma_headphones09.jpg	1	3	1	nma_headphones09.jpg 	nonmovArt	4	headphones	18	headphones09	188	not_alive	0	still	0	artefact	0	n	0	0    	 	0.0	0	118.91188649996201	119.011796100065	0.099909600103274
88546	100	214	stimuli\animals\dog\animal_dog04.jpg             	1	3	1	animal_dog04.jpg     	animals  	0	dog       	11	dog04       	113	alive    	1	moves	1	natural 	1	n	0	0    	 	0.0	0	119.061890600016	119.16179290006399	0.0999023000476882
88696	100	215	stimuli\nonmovArt\mug\nma_mug06.jpg              	1	3	1	nma_mug06.jpg        	nonmovArt	4	mug       	26	mug06       	265	not_alive	0	still	0	artefact	0	n	0	0    	 	0.0	0	119.211875900044	119.311789500061	0.0999136000173166
88846	100	216	stimuli\plant2\moss\plant_moss01.jpg             	1	3	1	plant_moss01.jpg     	plant2   	7	moss      	25	moss01      	250	alive    	1	still	0	natural 	1	n	0	0    	 	0.0	0	119.36188440001601	119.46181180002199	0.0999274000059813
88996	100	217	stimuli\nonmovArt\clothespeg\nma_clothespeg05.jpg	1	3	1	nma_clothespeg05.jpg 	nonmovArt	4	clothespeg	8	clothespeg05	84	not_alive	0	still	0	artefact	0	n	0	0    	 	0.0	0	119.51187539997	119.611821900005	0.0999465000350028
89146	100	218	stimuli\animals2\lemur\animal_lemur10.jpg        	1	3	1	animal_lemur10.jpg   	animals2 	1	lemur     	23	lemur10     	239	alive    	1	moves	1	natural 	1	n	0	0    	 	0.0	0	119.66209500003599	119.76185440004299	0.0997594000073149
89296	100	219	stimuli\movNat\river\mn_river05.jpg              	1	3	1	mn_river05.jpg       	movNat   	3	river     	29	river05     	294	not_alive	0	moves	1	natural 	1	n	0	0    	 	0.0	0	119.811863900046	119.911793300067	0.0999294000212103
89446	100	220	stimuli\animals2\lemur\animal_lemur02.jpg        	1	3	1	animal_lemur02.jpg   	animals2 	1	lemur     	23	lemur02     	231	alive    	1	moves	1	natural 	1	n	0	0    	 	0.0	0	119.961873400025	120.061791799963	0.0999183999374508
89596	100	221	stimuli\nonmovArt\headphones\nma_headphones10.jpg	1	3	1	nma_headphones10.jpg 	nonmovArt	4	headphones	18	headphones10	189	not_alive	0	still	0	artefact	0	n	0	0    	 	0.0	0	120.111857400043	120.21178250003099	0.099925099988468
89746	100	222	stimuli\animals2\bee\animal_bee10.jpg            	1	3	1	animal_bee10.jpg     	animals2 	1	bee       	0	bee10       	9	alive    	1	moves	1	natural 	1	n	1	0    	 	0.0	0	120.261876899982	120.361793600023	0.0999167000409215
89896	100	223	stimuli\animals2\tiger\animal_tiger07.jpg        	1	3	1	animal_tiger07.jpg   	animals2 	1	tiger     	33	tiger07     	336	alive    	1	moves	1	natural 	1	n	0	0    	 	0.0	0	120.411880900036	120.51181709999202	0.0999361999565735
90046	100	224	stimuli\nonmovArt\headphones\nma_headphones09.jpg	1	3	1	nma_headphones09.jpg 	nonmovArt	4	headphones	18	headphones09	188	not_alive	0	still	0	artefact	0	n	0	1    	f	0.308316700044088	1	120.56188579998	120.661759600043	0.0998738000635057
90196	100	225	stimuli\plant\tree\plant_tree06.jpg              	1	3	1	plant_tree06.jpg     	plant    	6	tree      	35	tree06      	355	alive    	1	still	0	natural 	1	n	0	0    	 	0.0	0	120.712039400009	120.81180600007099	0.0997666000621393
90346	100	226	stimuli\nonmovArt\clothespeg\nma_clothespeg03.jpg	1	3	1	nma_clothespeg03.jpg 	nonmovArt	4	clothespeg	8	clothespeg03	82	not_alive	0	still	0	artefact	0	n	0	0    	 	0.0	0	120.86205530003599	120.96180160006	0.0997463000239804
90496	100	227	stimuli\animals2\whale\animal_whale01.jpg        	1	3	1	animal_whale01.jpg   	animals2 	1	whale     	39	whale01     	390	alive    	1	moves	1	natural 	1	n	0	0    	 	0.0	0	121.011867200024	121.111832399969	0.0999651999445632
90646	100	228	stimuli\nonmovNat\crystal\nmn_crystal02.jpg      	1	3	1	nmn_crystal02.jpg    	nonmovNat	5	crystal   	10	crystal02   	101	not_alive	0	still	0	natural 	1	n	0	0    	 	0.0	0	121.16188889998001	121.261805000016	0.0999161000363528
90796	100	229	stimuli\plant2\fern\plant_fern02.jpg             	1	3	1	plant_fern02.jpg     	plant2   	7	fern      	14	fern02      	141	alive    	1	still	0	natural 	1	n	0	0    	 	0.0	0	121.311863600044	121.411780099967	0.0999164999229833
90946	100	230	stimuli\animals\eagle\animal_eagle02.jpg         	1	3	1	animal_eagle02.jpg   	animals  	0	eagle     	13	eagle02     	131	alive    	1	moves	1	natural 	1	n	0	0    	 	0.0	0	121.461984800058	121.561802300042	0.0998174999840557
91096	100	231	stimuli\nonmovNat\shell\nmn_shell08.jpg          	1	3	1	nmn_shell08.jpg      	nonmovNat	5	shell     	32	shell08     	327	not_alive	0	still	0	natural 	1	n	0	0    	 	0.0	0	121.61188980005699	121.711883299984	0.0999934999272227
91246	100	232	stimuli\nonmovNat\rock\nmn_rock05.jpg            	1	3	1	nmn_rock05.jpg       	nonmovNat	5	rock      	30	rock05      	304	not_alive	0	still	0	natural 	1	n	0	0    	 	0.0	0	121.76187120005501	121.86179450003	0.0999232999747619
91396	100	233	stimuli\plant\cactus\plant_cactus03.jpg          	1	3	1	plant_cactus03.jpg   	plant    	6	cactus    	4	cactus03    	42	alive    	1	still	0	natural 	1	n	0	0    	 	0.0	0	121.911889699986	122.011778200045	0.0998885000590235
91546	100	234	stimuli\nonmovNat\cliff\nmn_cliff08.jpg          	1	3	1	nmn_cliff08.jpg      	nonmovNat	5	cliff     	7	cliff08     	77	not_alive	0	still	0	natural 	1	n	0	0    	 	0.0	0	122.061888900003	122.161804700037	0.0999158000340685
91696	100	235	stimuli\nonmovNat\shell\nmn_shell07.jpg          	1	3	1	nmn_shell07.jpg      	nonmovNat	5	shell     	32	shell07     	326	not_alive	0	still	0	natural 	1	n	0	0    	 	0.0	0	122.21187800006001	122.31178069999399	0.0999026999343186
91846	100	236	stimuli\animals\horse\animal_horse05.jpg         	1	3	1	animal_horse05.jpg   	animals  	0	horse     	20	horse05     	204	alive    	1	moves	1	natural 	1	n	0	0    	 	0.0	0	122.361853400012	122.46177389996599	0.0999204999534413
91996	100	237	stimuli\nonmovNat\rock\nmn_rock01.jpg            	1	3	1	nmn_rock01.jpg       	nonmovNat	5	rock      	30	rock01      	300	not_alive	0	still	0	natural 	1	n	0	0    	 	0.0	0	122.51185790007	122.61179460003001	0.0999366999603808
92146	100	238	stimuli\movNat\fire\mn_fire03.jpg                	1	3	1	mn_fire03.jpg        	movNat   	3	fire      	15	fire03      	152	not_alive	0	moves	1	natural 	1	n	0	0    	 	0.0	0	122.66190209996401	122.761756799999	0.0998547000344842
92296	100	239	stimuli\movNat\waves\mn_waves08.jpg              	1	3	1	mn_waves08.jpg       	movNat   	3	waves     	38	waves08     	387	not_alive	0	moves	1	natural 	1	n	0	0    	 	0.0	0	122.811836700072	122.91174800007099	0.0999112999998033
97196	100	240	stimuli\nonmovArt\bench\nma_bench01.jpg          	1	4	1	nma_bench01.jpg      	nonmovArt	4	bench     	1	bench01     	10	not_alive	0	still	0	artefact	0	n	0	0    	 	0.0	0	127.711851999979	127.811826299992	0.0999743000138551
97346	100	241	stimuli\animals2\tiger\animal_tiger07.jpg        	1	4	1	animal_tiger07.jpg   	animals2 	1	tiger     	33	tiger07     	336	alive    	1	moves	1	natural 	1	n	0	0    	 	0.0	0	127.861887900042	127.96171750000201	0.0998295999597758
97496	100	242	stimuli\animals\dolphin\animal_dolphin09.jpg     	1	4	1	animal_dolphin09.jpg 	animals  	0	dolphin   	12	dolphin09   	128	alive    	1	moves	1	natural 	1	n	0	0    	 	0.0	0	128.01178419997402	128.111697999993	0.0999138000188395
97646	100	243	stimuli\movNat\hotspring\mn_hotspring09.jpg      	1	4	1	mn_hotspring09.jpg   	movNat   	3	hotspring 	21	hotspring09 	218	not_alive	0	moves	1	natural 	1	n	0	0    	 	0.0	0	128.161772900028	128.26169319998002	0.0999202999519184
97796	100	244	stimuli\animals\dog\animal_dog06.jpg             	1	4	1	animal_dog06.jpg     	animals  	0	dog       	11	dog06       	115	alive    	1	moves	1	natural 	1	n	0	0    	 	0.0	0	128.311774900067	128.411708200001	0.0999332999344915
97946	100	245	stimuli\animals\horse\animal_horse06.jpg         	1	4	1	animal_horse06.jpg   	animals  	0	horse     	20	horse06     	205	alive    	1	moves	1	natural 	1	n	0	0    	 	0.0	0	128.461797900032	128.561704099993	0.0999061999609694
98096	100	246	stimuli\plant2\fern\plant_fern07.jpg             	1	4	1	plant_fern07.jpg     	plant2   	7	fern      	14	fern07      	146	alive    	1	still	0	natural 	1	n	0	0    	 	0.0	0	128.611772299977	128.711696799961	0.0999244999838993
98246	100	247	stimuli\animals\dolphin\animal_dolphin07.jpg     	1	4	1	animal_dolphin07.jpg 	animals  	0	dolphin   	12	dolphin07   	126	alive    	1	moves	1	natural 	1	n	0	0    	 	0.0	0	128.761765800067	128.861687600031	0.0999217999633401
98396	100	248	stimuli\plant2\lemontree\plant_lemontree02.jpg   	1	4	1	plant_lemontree02.jpg	plant2   	7	lemontree 	22	lemontree02 	221	alive    	1	still	0	natural 	1	n	0	0    	 	0.0	0	128.911765799974	129.011692399974	0.0999265999998897
98546	100	249	stimuli\nonmovArt\clothespeg\nma_clothespeg04.jpg	1	4	1	nma_clothespeg04.jpg 	nonmovArt	4	clothespeg	8	clothespeg04	83	not_alive	0	still	0	artefact	0	n	0	0    	 	0.0	0	129.061791199958	129.161695000017	0.0999038000591099
98696	100	250	stimuli\movNat\waterfall\mn_waterfall01.jpg      	1	4	1	mn_waterfall01.jpg   	movNat   	3	waterfall 	37	waterfall01 	370	not_alive	0	moves	1	natural 	1	n	0	0    	 	0.0	0	129.21175310004	129.31169750005898	0.0999444000190124
98846	100	251	stimuli\animals2\bee\animal_bee07.jpg            	1	4	1	animal_bee07.jpg     	animals2 	1	bee       	0	bee07       	6	alive    	1	moves	1	natural 	1	n	0	0    	 	0.0	0	129.361776800011	129.461672800011	0.0998959999997168
98996	100	252	stimuli\plant2\fern\plant_fern06.jpg             	1	4	1	plant_fern06.jpg     	plant2   	7	fern      	14	fern06      	145	alive    	1	still	0	natural 	1	n	0	0    	 	0.0	0	129.511785199982	129.611689500045	0.0999043000629171
99146	100	253	stimuli\nonmovNat\rock\nmn_rock07.jpg            	1	4	1	nmn_rock07.jpg       	nonmovNat	5	rock      	30	rock07      	306	not_alive	0	still	0	natural 	1	n	1	0    	 	0.0	0	129.661884500063	129.76169970003	0.0998151999665424
99296	100	254	stimuli\movNat\hotspring\mn_hotspring05.jpg      	1	4	1	mn_hotspring05.jpg   	movNat   	3	hotspring 	21	hotspring05 	214	not_alive	0	moves	1	natural 	1	n	0	0    	 	0.0	0	129.811754500028	129.911669000052	0.0999145000241696
99446	100	255	stimuli\animals2\whale\animal_whale02.jpg        	1	4	1	animal_whale02.jpg   	animals2 	1	whale     	39	whale02     	391	alive    	1	moves	1	natural 	1	n	1	1    	f	-0.0079727000556886	1	129.961781500024	130.061689099995	0.0999075999716296
99596	100	256	stimuli\plant2\palmtree\plant_palmtree07.jpg     	1	4	1	plant_palmtree07.jpg 	plant2   	7	palmtree  	27	palmtree07  	276	alive    	1	still	0	natural 	1	n	0	0    	 	0.0	0	130.111773599987	130.211669599987	0.0998959999997168
99746	100	257	stimuli\animals2\bee\animal_bee04.jpg            	1	4	1	animal_bee04.jpg     	animals2 	1	bee       	0	bee04       	3	alive    	1	moves	1	natural 	1	n	0	1    	f	0.391959100030363	1	130.261765200063	130.361665999982	0.0999007999198511
99896	100	258	stimuli\nonmovArt\clothespeg\nma_clothespeg08.jpg	1	4	1	nma_clothespeg08.jpg 	nonmovArt	4	clothespeg	8	clothespeg08	87	not_alive	0	still	0	artefact	0	n	0	0    	 	0.0	0	130.411766799982	130.511668200023	0.0999014000408351
100046	100	259	stimuli\plant\flower\plant_flower09.jpg          	1	4	1	plant_flower09.jpg   	plant    	6	flower    	16	flower09    	168	alive    	1	still	0	natural 	1	n	0	0    	 	0.0	0	130.561768600019	130.661682000035	0.0999134000157937
100196	100	260	stimuli\movNat\hotspring\mn_hotspring04.jpg      	1	4	1	mn_hotspring04.jpg   	movNat   	3	hotspring 	21	hotspring04 	213	not_alive	0	moves	1	natural 	1	n	0	0    	 	0.0	0	130.71176360000402	130.811653200071	0.0998896000673994
100346	100	261	stimuli\nonmovNat\cliff\nmn_cliff07.jpg          	1	4	1	nmn_cliff07.jpg      	nonmovNat	5	cliff     	7	cliff07     	76	not_alive	0	still	0	natural 	1	n	0	0    	 	0.0	0	130.861760200001	130.961677100044	0.0999169000424444
100496	100	262	stimuli\movNat\waves\mn_waves06.jpg              	1	4	1	mn_waves06.jpg       	movNat   	3	waves     	38	waves06     	385	not_alive	0	moves	1	natural 	1	n	0	0    	 	0.0	0	131.011741399998	131.111653700005	0.0999123000074178
100646	100	263	stimuli\nonmovNat\rock\nmn_rock03.jpg            	1	4	1	nmn_rock03.jpg       	nonmovNat	5	rock      	30	rock03      	302	not_alive	0	still	0	natural 	1	n	0	0    	 	0.0	0	131.161754400004	131.26168560003902	0.0999312000349164
100796	100	264	stimuli\plant\grass\plant_grass02.jpg            	1	4	1	plant_grass02.jpg    	plant    	6	grass     	17	grass02     	171	alive    	1	still	0	natural 	1	n	0	0    	 	0.0	0	131.311748099979	131.41165560006598	0.0999075000872835
100946	100	265	stimuli\animals\dog\animal_dog01.jpg             	1	4	1	animal_dog01.jpg     	animals  	0	dog       	11	dog01       	110	alive    	1	moves	1	natural 	1	n	0	0    	 	0.0	0	131.461809800006	131.561680500046	0.0998707000399008
101096	100	266	stimuli\animals2\pigeon\animal_pigeon01.jpg      	1	4	1	animal_pigeon01.jpg  	animals2 	1	pigeon    	28	pigeon01    	280	alive    	1	moves	1	natural 	1	n	0	0    	 	0.0	0	131.6117447	131.711689600023	0.0999449000228196
101246	100	267	stimuli\plant\grass\plant_grass05.jpg            	1	4	1	plant_grass05.jpg    	plant    	6	grass     	17	grass05     	174	alive    	1	still	0	natural 	1	n	0	0    	 	0.0	0	131.76175439998002	131.861677600071	0.0999232000904157
101396	100	268	stimuli\nonmovArt\mug\nma_mug02.jpg              	1	4	1	nma_mug02.jpg        	nonmovArt	4	mug       	26	mug02       	261	not_alive	0	still	0	artefact	0	n	0	0    	 	0.0	0	131.91172470001	132.011657100054	0.0999324000440538
101546	100	269	stimuli\movArt\boat\ma_boat09.jpg                	1	4	1	ma_boat09.jpg        	movArt   	2	boat      	2	boat09      	28	not_alive	0	moves	1	artefact	0	n	0	0    	 	0.0	0	132.061756600044	132.16166720003798	0.0999105999944731
101696	100	270	stimuli\nonmovNat\cliff\nmn_cliff07.jpg          	1	4	1	nmn_cliff07.jpg      	nonmovNat	5	cliff     	7	cliff07     	76	not_alive	0	still	0	natural 	1	n	0	0    	 	0.0	0	132.211733900011	132.311653599958	0.0999196999473497
101846	100	271	stimuli\movArt\bus\ma_bus08.jpg                  	1	4	1	ma_bus08.jpg         	movArt   	2	bus       	3	bus08       	37	not_alive	0	moves	1	artefact	0	n	0	0    	 	0.0	0	132.361734800041	132.461659800028	0.0999249999877065
101996	100	272	stimuli\movNat\river\mn_river06.jpg              	1	4	1	mn_river06.jpg       	movNat   	3	river     	29	river06     	295	not_alive	0	moves	1	natural 	1	n	0	0    	 	0.0	0	132.511699100025	132.611649199971	0.0999500999459996
102146	100	273	stimuli\animals\eagle\animal_eagle06.jpg         	1	4	1	animal_eagle06.jpg   	animals  	0	eagle     	13	eagle06     	135	alive    	1	moves	1	natural 	1	n	0	0    	 	0.0	0	132.661748799961	132.761653100024	0.0999043000629171
102296	100	274	stimuli\animals2\lemur\animal_lemur04.jpg        	1	4	1	animal_lemur04.jpg   	animals2 	1	lemur     	23	lemur04     	233	alive    	1	moves	1	natural 	1	n	0	0    	 	0.0	0	132.81172980007202	132.911642199964	0.0999123998917639
102446	100	275	stimuli\nonmovArt\headphones\nma_headphones10.jpg	1	4	1	nma_headphones10.jpg 	nonmovArt	4	headphones	18	headphones10	189	not_alive	0	still	0	artefact	0	n	0	0    	 	0.0	0	132.961731799995	133.06165369995898	0.0999218999641016
102596	100	276	stimuli\nonmovArt\mug\nma_mug01.jpg              	1	4	1	nma_mug01.jpg        	nonmovArt	4	mug       	26	mug01       	260	not_alive	0	still	0	artefact	0	n	0	0    	 	0.0	0	133.111787299975	133.211739600054	0.0999523000791668
102746	100	277	stimuli\movNat\fire\mn_fire03.jpg                	1	4	1	mn_fire03.jpg        	movNat   	3	fire      	15	fire03      	152	not_alive	0	moves	1	natural 	1	n	0	0    	 	0.0	0	133.26191410003202	133.361665799981	0.0997516999486833
102896	100	278	stimuli\plant\cactus\plant_cactus04.jpg          	1	4	1	plant_cactus04.jpg   	plant    	6	cactus    	4	cactus04    	43	alive    	1	still	0	natural 	1	n	0	0    	 	0.0	0	133.411733799963	133.511673300061	0.0999395000981167
103046	100	279	stimuli\plant2\lemontree\plant_lemontree03.jpg   	1	4	1	plant_lemontree03.jpg	plant2   	7	lemontree 	22	lemontree03 	222	alive    	1	still	0	natural 	1	n	1	0    	 	0.0	0	133.561783400015	133.661704399972	0.0999209999572485
103196	100	280	stimuli\animals\horse\animal_horse04.jpg         	1	4	1	animal_horse04.jpg   	animals  	0	horse     	20	horse04     	203	alive    	1	moves	1	natural 	1	n	0	0    	 	0.0	0	133.711735300021	133.811646400019	0.0999110999982804
103346	100	281	stimuli\animals2\pigeon\animal_pigeon08.jpg      	1	4	1	animal_pigeon08.jpg  	animals2 	1	pigeon    	28	pigeon08    	287	alive    	1	moves	1	natural 	1	n	0	1    	f	0.292000300018117	1	133.861737700063	133.961682899971	0.0999451999086886
103496	100	282	stimuli\movNat\fire\mn_fire01.jpg                	1	4	1	mn_fire01.jpg        	movNat   	3	fire      	15	fire01      	150	not_alive	0	moves	1	natural 	1	n	0	0    	 	0.0	0	134.011752799968	134.111676900066	0.0999241000972688
103646	100	283	stimuli\plant2\moss\plant_moss06.jpg             	1	4	1	plant_moss06.jpg     	plant2   	7	moss      	25	moss06      	255	alive    	1	still	0	natural 	1	n	0	0    	 	0.0	0	134.16174250003002	134.261685300036	0.0999428000068292
103796	100	284	stimuli\nonmovNat\sand\nmn_sand09.jpg            	1	4	1	nmn_sand09.jpg       	nonmovNat	5	sand      	31	sand09      	318	not_alive	0	still	0	natural 	1	n	0	0    	 	0.0	0	134.311752600013	134.411667900044	0.0999153000302612
103946	100	285	stimuli\plant2\clover\plant_clover04.jpg         	1	4	1	plant_clover04.jpg   	plant2   	7	clover    	9	clover04    	93	alive    	1	still	0	natural 	1	n	0	0    	 	0.0	0	134.46173510001998	134.561644700007	0.0999095999868586
104096	100	286	stimuli\plant\cactus\plant_cactus07.jpg          	1	4	1	plant_cactus07.jpg   	plant    	6	cactus    	4	cactus07    	46	alive    	1	still	0	natural 	1	n	0	0    	 	0.0	0	134.61173949996	134.711685899994	0.0999464000342413
104246	100	287	stimuli\plant\tree\plant_tree03.jpg              	1	4	1	plant_tree03.jpg     	plant    	6	tree      	35	tree03      	352	alive    	1	still	0	natural 	1	n	0	0    	 	0.0	0	134.761732300045	134.861676600063	0.0999443000182509
104396	100	288	stimuli\nonmovArt\mug\nma_mug10.jpg              	1	4	1	nma_mug10.jpg        	nonmovArt	4	mug       	26	mug10       	269	not_alive	0	still	0	artefact	0	n	0	0    	 	0.0	0	134.911721699988	135.011749400059	0.10002770007122301
104546	100	289	stimuli\nonmovNat\shell\nmn_shell04.jpg          	1	4	1	nmn_shell04.jpg      	nonmovNat	5	shell     	32	shell04     	323	not_alive	0	still	0	natural 	1	n	0	0    	 	0.0	0	135.061878100038	135.16164269996798	0.09976459993049498
104696	100	290	stimuli\plant2\moss\plant_moss05.jpg             	1	4	1	plant_moss05.jpg     	plant2   	7	moss      	25	moss05      	254	alive    	1	still	0	natural 	1	n	1	0    	 	0.0	0	135.211745999986	135.311663300032	0.0999173000454902
104846	100	291	stimuli\nonmovNat\cliff\nmn_cliff03.jpg          	1	4	1	nmn_cliff03.jpg      	nonmovNat	5	cliff     	7	cliff03     	72	not_alive	0	still	0	natural 	1	n	0	1    	f	0.25746280001476396	1	135.361731900019	135.461662300047	0.0999304000288248
104996	100	292	stimuli\plant2\clover\plant_clover08.jpg         	1	4	1	plant_clover08.jpg   	plant2   	7	clover    	9	clover08    	97	alive    	1	still	0	natural 	1	n	0	0    	 	0.0	0	135.51173969998501	135.611626000027	0.0998863000422716
105146	100	293	stimuli\nonmovNat\shell\nmn_shell02.jpg          	1	4	1	nmn_shell02.jpg      	nonmovNat	5	shell     	32	shell02     	321	not_alive	0	still	0	natural 	1	n	0	0    	 	0.0	0	135.66171280003599	135.76083519996598	0.0991223999299109
105295	100	294	stimuli\movNat\waterfall\mn_waterfall09.jpg      	1	4	1	mn_waterfall09.jpg   	movNat   	3	waterfall 	37	waterfall09 	378	not_alive	0	moves	1	natural 	1	n	0	0    	 	0.0	0	135.810845099972	135.910839000018	0.0999939000466838
105445	100	295	stimuli\movArt\helicopter\ma_helicopter09.jpg    	1	4	1	ma_helicopter09.jpg  	movArt   	2	helicopter	19	helicopter09	198	not_alive	0	moves	1	artefact	0	n	0	0    	 	0.0	0	135.960847800016	136.060851100017	0.100003300001845
105595	100	296	stimuli\animals\horse\animal_horse10.jpg         	1	4	1	animal_horse10.jpg   	animals  	0	horse     	20	horse10     	209	alive    	1	moves	1	natural 	1	n	0	0    	 	0.0	0	136.110844500014	136.21083580004	0.0999913000268861
105745	100	297	stimuli\movNat\river\mn_river04.jpg              	1	4	1	mn_river04.jpg       	movNat   	3	river     	29	river04     	293	not_alive	0	moves	1	natural 	1	n	0	0    	 	0.0	0	136.260838699993	136.360834700055	0.0999960000626742
105895	100	298	stimuli\nonmovNat\shell\nmn_shell03.jpg          	1	4	1	nmn_shell03.jpg      	nonmovNat	5	shell     	32	shell03     	322	not_alive	0	still	0	natural 	1	n	0	0    	 	0.0	0	136.410842200043	136.510825200006	0.0999829999636858
106045	100	299	stimuli\animals2\tiger\animal_tiger09.jpg        	1	4	1	animal_tiger09.jpg   	animals2 	1	tiger     	33	tiger09     	338	alive    	1	moves	1	natural 	1	n	0	0    	 	0.0	0	136.560838500038	136.660830999957	0.0999924999196082
106195	100	300	stimuli\animals\dolphin\animal_dolphin05.jpg     	1	4	1	animal_dolphin05.jpg 	animals  	0	dolphin   	12	dolphin05   	124	alive    	1	moves	1	natural 	1	n	0	0    	 	0.0	0	136.710863800021	136.810841700062	0.0999779000412672
106345	100	301	stimuli\plant\vine\plant_vine10.jpg              	1	4	1	plant_vine10.jpg     	plant    	6	vine      	36	vine10      	369	alive    	1	still	0	natural 	1	n	0	0    	 	0.0	0	136.860835800064	136.960828699986	0.09999289992265402
106495	100	302	stimuli\plant\vine\plant_vine04.jpg              	1	4	1	plant_vine04.jpg     	plant    	6	vine      	36	vine04      	363	alive    	1	still	0	natural 	1	n	0	0    	 	0.0	0	137.010829100036	137.11082589998801	0.0999967999523505
106645	100	303	stimuli\movArt\car\ma_car01.jpg                  	1	4	1	ma_car01.jpg         	movArt   	2	car       	5	car01       	50	not_alive	0	moves	1	artefact	0	n	0	0    	 	0.0	0	137.160833299975	137.260817100061	0.0999838000861928
106795	100	304	stimuli\movArt\train\ma_train09.jpg              	1	4	1	ma_train09.jpg       	movArt   	2	train     	34	train09     	348	not_alive	0	moves	1	artefact	0	n	0	0    	 	0.0	0	137.31083089998	137.410815500072	0.0999846000922843
106945	100	305	stimuli\nonmovNat\crystal\nmn_crystal06.jpg      	1	4	1	nmn_crystal06.jpg    	nonmovNat	5	crystal   	10	crystal06   	105	not_alive	0	still	0	natural 	1	n	0	0    	 	0.0	0	137.460828999989	137.560813699965	0.0999846999766305
107095	100	306	stimuli\movArt\boat\ma_boat08.jpg                	1	4	1	ma_boat08.jpg        	movArt   	2	boat      	2	boat08      	27	not_alive	0	moves	1	artefact	0	n	0	0    	 	0.0	0	137.610830900026	137.710819900036	0.0999890000093728
107245	100	307	stimuli\movNat\waterfall\mn_waterfall05.jpg      	1	4	1	mn_waterfall05.jpg   	movNat   	3	waterfall 	37	waterfall05 	374	not_alive	0	moves	1	natural 	1	n	0	0    	 	0.0	0	137.760829500039	137.860818500048	0.0999890000093728
107395	100	308	stimuli\animals\cat\animal_cat02.jpg             	1	4	1	animal_cat02.jpg     	animals  	0	cat       	6	cat02       	61	alive    	1	moves	1	natural 	1	n	0	0    	 	0.0	0	137.910822200007	138.010811100015	0.0999889000086113
107545	100	309	stimuli\nonmovArt\headphones\nma_headphones07.jpg	1	4	1	nma_headphones07.jpg 	nonmovArt	4	headphones	18	headphones07	186	not_alive	0	still	0	artefact	0	n	0	0    	 	0.0	0	138.06082460004802	138.16081480006702	0.0999902000185102
107695	100	310	stimuli\plant\flower\plant_flower06.jpg          	1	4	1	plant_flower06.jpg   	plant    	6	flower    	16	flower06    	165	alive    	1	still	0	natural 	1	n	0	0    	 	0.0	0	138.210824700072	138.310807000031	0.0999822999583557
107845	100	311	stimuli\plant2\clover\plant_clover03.jpg         	1	4	1	plant_clover03.jpg   	plant2   	7	clover    	9	clover03    	92	alive    	1	still	0	natural 	1	n	0	0    	 	0.0	0	138.360817300039	138.460811099969	0.09999379992950698
107995	100	312	stimuli\movArt\car\ma_car09.jpg                  	1	4	1	ma_car09.jpg         	movArt   	2	car       	5	car09       	58	not_alive	0	moves	1	artefact	0	n	0	0    	 	0.0	0	138.51083519996598	138.610810499988	0.0999753000214696
108145	100	313	stimuli\animals\cat\animal_cat09.jpg             	1	4	1	animal_cat09.jpg     	animals  	0	cat       	6	cat09       	68	alive    	1	moves	1	natural 	1	n	0	0    	 	0.0	0	138.660819499986	138.76080270006798	0.09998320008162402
108295	100	314	stimuli\movArt\helicopter\ma_helicopter04.jpg    	1	4	1	ma_helicopter04.jpg  	movArt   	2	helicopter	19	helicopter04	193	not_alive	0	moves	1	artefact	0	n	0	0    	 	0.0	0	138.810810700059	138.91080069996	0.0999899999005719
108445	100	315	stimuli\nonmovNat\crystal\nmn_crystal08.jpg      	1	4	1	nmn_crystal08.jpg    	nonmovNat	5	crystal   	10	crystal08   	107	not_alive	0	still	0	natural 	1	n	0	0    	 	0.0	0	138.960816100007	139.06079939997298	0.0999832999659702
108595	100	316	stimuli\animals\dog\animal_dog05.jpg             	1	4	1	animal_dog05.jpg     	animals  	0	dog       	11	dog05       	114	alive    	1	moves	1	natural 	1	n	0	0    	 	0.0	0	139.110811499995	139.21079669997602	0.0999851999804377
108745	100	317	stimuli\animals2\whale\animal_whale02.jpg        	1	4	1	animal_whale02.jpg   	animals2 	1	whale     	39	whale02     	391	alive    	1	moves	1	natural 	1	n	0	0    	 	0.0	0	139.260804099962	139.36080270004499	0.0999986000824719
108895	100	318	stimuli\animals2\lemur\animal_lemur09.jpg        	1	4	1	animal_lemur09.jpg   	animals2 	1	lemur     	23	lemur09     	238	alive    	1	moves	1	natural 	1	n	0	0    	 	0.0	0	139.41080369998198	139.510801400058	0.0999977000756189
109045	100	319	stimuli\animals2\lemur\animal_lemur09.jpg        	1	4	1	animal_lemur09.jpg   	animals2 	1	lemur     	23	lemur09     	238	alive    	1	moves	1	natural 	1	n	0	0    	 	0.0	0	139.560808500042	139.660792300012	0.0999837999697774
112812	100	320	stimuli\nonmovArt\bench\nma_bench09.jpg          	1	5	1	nma_bench09.jpg      	nonmovArt	4	bench     	1	bench09     	18	not_alive	0	still	0	artefact	0	n	0	0    	 	0.0	0	143.327448499971	143.427434400073	0.0999859001021832
112962	100	321	stimuli\animals2\pigeon\animal_pigeon01.jpg      	1	5	1	animal_pigeon01.jpg  	animals2 	1	pigeon    	28	pigeon01    	280	alive    	1	moves	1	natural 	1	n	0	0    	 	0.0	0	143.47744320007	143.577433899976	0.0999906999059021
113112	100	322	stimuli\nonmovNat\rock\nmn_rock03.jpg            	1	5	1	nmn_rock03.jpg       	nonmovNat	5	rock      	30	rock03      	302	not_alive	0	still	0	natural 	1	n	0	1    	f	0.0	0	143.62744089996	143.727429599967	0.0999887000070884
113262	100	323	stimuli\nonmovArt\headphones\nma_headphones06.jpg	1	5	1	nma_headphones06.jpg 	nonmovArt	4	headphones	18	headphones06	185	not_alive	0	still	0	artefact	0	n	0	0    	 	0.0	0	143.777463400038	143.877429299988	0.0999658999498933
113412	100	324	stimuli\plant\cactus\plant_cactus08.jpg          	1	5	1	plant_cactus08.jpg   	plant    	6	cactus    	4	cactus08    	47	alive    	1	still	0	natural 	1	n	0	0    	 	0.0	0	143.92743629997102	144.027425099979	0.0999888000078499
113562	100	325	stimuli\plant2\fern\plant_fern02.jpg             	1	5	1	plant_fern02.jpg     	plant2   	7	fern      	14	fern02      	141	alive    	1	still	0	natural 	1	n	0	0    	 	0.0	0	144.077437500004	144.17742560000602	0.0999881000025198
113712	100	326	stimuli\nonmovArt\lock\nma_lock05.jpg            	1	5	1	nma_lock05.jpg       	nonmovArt	4	lock      	24	lock05      	244	not_alive	0	still	0	artefact	0	n	0	0    	 	0.0	0	144.22743319999398	144.32742560003	0.0999924000352621
113862	100	327	stimuli\animals\cat\animal_cat09.jpg             	1	5	1	animal_cat09.jpg     	animals  	0	cat       	6	cat09       	68	alive    	1	moves	1	natural 	1	n	0	0    	 	0.0	0	144.377433800022	144.477421700023	0.0999879000009968
114012	100	328	stimuli\movNat\waves\mn_waves06.jpg              	1	5	1	mn_waves06.jpg       	movNat   	3	waves     	38	waves06     	385	not_alive	0	moves	1	natural 	1	n	0	0    	 	0.0	0	144.527435600059	144.627421500045	0.0999858999857679
114162	100	329	stimuli\plant\flower\plant_flower10.jpg          	1	5	1	plant_flower10.jpg   	plant    	6	flower    	16	flower10    	169	alive    	1	still	0	natural 	1	n	0	0    	 	0.0	0	144.677431200049	144.77737420005698	0.0999430000083521
114312	100	330	stimuli\animals2\tiger\animal_tiger10.jpg        	1	5	1	animal_tiger10.jpg   	animals2 	1	tiger     	33	tiger10     	339	alive    	1	moves	1	natural 	1	n	0	0    	 	0.0	0	144.827420099988	144.92741080001002	0.0999907000223174
114462	100	331	stimuli\movNat\fire\mn_fire01.jpg                	1	5	1	mn_fire01.jpg        	movNat   	3	fire      	15	fire01      	150	not_alive	0	moves	1	natural 	1	n	0	0    	 	0.0	0	144.977413499961	145.077406700002	0.0999932000413537
114612	100	332	stimuli\movArt\bus\ma_bus05.jpg                  	1	5	1	ma_bus05.jpg         	movArt   	2	bus       	3	bus05       	34	not_alive	0	moves	1	artefact	0	n	0	0    	 	0.0	0	145.127415299998	145.227402499993	0.0999871999956667
114762	100	333	stimuli\movArt\car\ma_car05.jpg                  	1	5	1	ma_car05.jpg         	movArt   	2	car       	5	car05       	54	not_alive	0	moves	1	artefact	0	n	1	0    	 	0.0	0	145.277409499977	145.377404100029	0.09999460005201401
114912	100	334	stimuli\nonmovArt\lock\nma_lock08.jpg            	1	5	1	nma_lock08.jpg       	nonmovArt	4	lock      	24	lock08      	247	not_alive	0	still	0	artefact	0	n	0	0    	 	0.0	0	145.427414200036	145.52742389997	0.10000969993416199
115062	100	335	stimuli\animals2\whale\animal_whale03.jpg        	1	5	1	animal_whale03.jpg   	animals2 	1	whale     	39	whale03     	392	alive    	1	moves	1	natural 	1	n	1	1    	f	0.0077779999701306	1	145.57741230004498	145.677396000014	0.099983699969016
115212	100	336	stimuli\plant2\palmtree\plant_palmtree09.jpg     	1	5	1	plant_palmtree09.jpg 	plant2   	7	palmtree  	27	palmtree09  	278	alive    	1	still	0	natural 	1	n	0	0    	 	0.0	0	145.7274034	145.827394000022	0.099990600021556
115362	100	337	stimuli\animals\eagle\animal_eagle06.jpg         	1	5	1	animal_eagle06.jpg   	animals  	0	eagle     	13	eagle06     	135	alive    	1	moves	1	natural 	1	n	0	1    	f	0.391958800028078	1	145.87740360002502	145.977391100023	0.099987499997951
115512	100	338	stimuli\nonmovNat\sand\nmn_sand08.jpg            	1	5	1	nmn_sand08.jpg       	nonmovNat	5	sand      	31	sand08      	317	not_alive	0	still	0	natural 	1	n	0	0    	 	0.0	0	146.027404300054	146.127391200047	0.0999868999933824
115662	100	339	stimuli\nonmovNat\crystal\nmn_crystal07.jpg      	1	5	1	nmn_crystal07.jpg    	nonmovNat	5	crystal   	10	crystal07   	106	not_alive	0	still	0	natural 	1	n	0	0    	 	0.0	0	146.177409199998	146.27741129998998	0.10000209999270698
115812	100	340	stimuli\nonmovArt\bench\nma_bench04.jpg          	1	5	1	nma_bench04.jpg      	nonmovArt	4	bench     	1	bench04     	13	not_alive	0	still	0	artefact	0	n	0	0    	 	0.0	0	146.327406500001	146.427392599988	0.0999860999872908
115962	100	341	stimuli\movNat\waves\mn_waves09.jpg              	1	5	1	mn_waves09.jpg       	movNat   	3	waves     	38	waves09     	388	not_alive	0	moves	1	natural 	1	n	0	0    	 	0.0	0	146.477404300007	146.577387699974	0.0999833999667316
116112	100	342	stimuli\movArt\train\ma_train08.jpg              	1	5	1	ma_train08.jpg       	movArt   	2	train     	34	train08     	347	not_alive	0	moves	1	artefact	0	n	0	0    	 	0.0	0	146.62740230001498	146.727385599981	0.0999832999659702
116262	100	343	stimuli\movArt\train\ma_train08.jpg              	1	5	1	ma_train08.jpg       	movArt   	2	train     	34	train08     	347	not_alive	0	moves	1	artefact	0	n	0	0    	 	0.0	0	146.777394099976	146.87739030004	0.0999962000641971
116412	100	344	stimuli\movArt\bus\ma_bus06.jpg                  	1	5	1	ma_bus06.jpg         	movArt   	2	bus       	3	bus06       	35	not_alive	0	moves	1	artefact	0	n	0	0    	 	0.0	0	146.927396600018	147.027380399988	0.0999837999697774
116562	100	345	stimuli\plant\vine\plant_vine04.jpg              	1	5	1	plant_vine04.jpg     	plant    	6	vine      	36	vine04      	363	alive    	1	still	0	natural 	1	n	0	0    	 	0.0	0	147.07739640004	147.177385000046	0.09998860000632699
116712	100	346	stimuli\plant2\moss\plant_moss07.jpg             	1	5	1	plant_moss07.jpg     	plant2   	7	moss      	25	moss07      	256	alive    	1	still	0	natural 	1	n	0	0    	 	0.0	0	147.22739580005899	147.327383900061	0.0999881000025198
116862	100	347	stimuli\movArt\boat\ma_boat05.jpg                	1	5	1	ma_boat05.jpg        	movArt   	2	boat      	2	boat05      	24	not_alive	0	moves	1	artefact	0	n	0	0    	 	0.0	0	147.377391200047	147.477376900031	0.099985699984245
117012	100	348	stimuli\plant\tree\plant_tree01.jpg              	1	5	1	plant_tree01.jpg     	plant    	6	tree      	35	tree01      	350	alive    	1	still	0	natural 	1	n	0	0    	 	0.0	0	147.527402400039	147.628213900025	0.10081149998586601
117162	100	349	stimuli\nonmovNat\sand\nmn_sand02.jpg            	1	5	1	nmn_sand02.jpg       	nonmovNat	5	sand      	31	sand02      	311	not_alive	0	still	0	natural 	1	n	0	0    	 	0.0	0	147.678281600005	147.778188199969	0.0999065999640152
117312	100	350	stimuli\animals\eagle\animal_eagle01.jpg         	1	5	1	animal_eagle01.jpg   	animals  	0	eagle     	13	eagle01     	130	alive    	1	moves	1	natural 	1	n	0	0    	 	0.0	0	147.828281600028	147.928174200002	0.0998925999738276
117462	100	351	stimuli\plant2\palmtree\plant_palmtree06.jpg     	1	5	1	plant_palmtree06.jpg 	plant2   	7	palmtree  	27	palmtree06  	275	alive    	1	still	0	natural 	1	n	0	0    	 	0.0	0	147.978214900009	148.078283600044	0.10006870003417098
117613	100	352	stimuli\movArt\helicopter\ma_helicopter06.jpg    	1	5	1	ma_helicopter06.jpg  	movArt   	2	helicopter	19	helicopter06	195	not_alive	0	moves	1	artefact	0	n	0	0    	 	0.0	0	148.12838670006	148.22817280003798	0.0997860999777913
117762	100	353	stimuli\nonmovArt\lock\nma_lock06.jpg            	1	5	1	nma_lock06.jpg       	nonmovArt	4	lock      	24	lock06      	245	not_alive	0	still	0	artefact	0	n	0	0    	 	0.0	0	148.278257600032	148.378177899984	0.0999202999519184
117912	100	354	stimuli\plant\tree\plant_tree07.jpg              	1	5	1	plant_tree07.jpg     	plant    	6	tree      	35	tree07      	356	alive    	1	still	0	natural 	1	n	0	0    	 	0.0	0	148.42825360002502	148.52816640003599	0.099912800011225
118062	100	355	stimuli\plant\grass\plant_grass06.jpg            	1	5	1	plant_grass06.jpg    	plant    	6	grass     	17	grass06     	175	alive    	1	still	0	natural 	1	n	0	0    	 	0.0	0	148.578282600036	148.678169199964	0.0998865999281406
118212	100	356	stimuli\plant2\lemontree\plant_lemontree05.jpg   	1	5	1	plant_lemontree05.jpg	plant2   	7	lemontree 	22	lemontree05 	224	alive    	1	still	0	natural 	1	n	0	0    	 	0.0	0	148.728279700037	148.828174700029	0.0998949999921023
118362	100	357	stimuli\nonmovArt\clothespeg\nma_clothespeg08.jpg	1	5	1	nma_clothespeg08.jpg 	nonmovArt	4	clothespeg	8	clothespeg08	87	not_alive	0	still	0	artefact	0	n	0	0    	 	0.0	0	148.878275200026	148.97819100006	0.0999158000340685
118512	100	358	stimuli\movNat\river\mn_river05.jpg              	1	5	1	mn_river05.jpg       	movNat   	3	river     	29	river05     	294	not_alive	0	moves	1	natural 	1	n	0	0    	 	0.0	0	149.028267199988	149.128161599976	0.0998943999875336
118662	100	359	stimuli\animals2\bee\animal_bee08.jpg            	1	5	1	animal_bee08.jpg     	animals2 	1	bee       	0	bee08       	7	alive    	1	moves	1	natural 	1	n	0	0    	 	0.0	0	149.178265800001	149.27815200004298	0.0998862000415101
118812	100	360	stimuli\movNat\hotspring\mn_hotspring09.jpg      	1	5	1	mn_hotspring09.jpg   	movNat   	3	hotspring 	21	hotspring09 	218	not_alive	0	moves	1	natural 	1	n	0	0    	 	0.0	0	149.328264200012	149.42818200006099	0.0999178000492975
118962	100	361	stimuli\plant2\lemontree\plant_lemontree04.jpg   	1	5	1	plant_lemontree04.jpg	plant2   	7	lemontree 	22	lemontree04 	223	alive    	1	still	0	natural 	1	n	0	0    	 	0.0	0	149.478267000057	149.57815319998198	0.0998861999250948
119112	100	362	stimuli\nonmovArt\lock\nma_lock04.jpg            	1	5	1	nma_lock04.jpg       	nonmovArt	4	lock      	24	lock04      	243	not_alive	0	still	0	artefact	0	n	0	0    	 	0.0	0	149.628265000065	149.728205500054	0.0999404999893158
119262	100	363	stimuli\plant2\clover\plant_clover05.jpg         	1	5	1	plant_clover05.jpg   	plant2   	7	clover    	9	clover05    	94	alive    	1	still	0	natural 	1	n	0	0    	 	0.0	0	149.778287400026	149.878220899962	0.0999334999360144
119413	100	364	stimuli\animals\dog\animal_dog07.jpg             	1	5	1	animal_dog07.jpg     	animals  	0	dog       	11	dog07       	116	alive    	1	moves	1	natural 	1	n	0	0    	 	0.0	0	149.92833100003202	150.028156799963	0.0998257999308407
119562	100	365	stimuli\animals\cat\animal_cat03.jpg             	1	5	1	animal_cat03.jpg     	animals  	0	cat       	6	cat03       	62	alive    	1	moves	1	natural 	1	n	0	0    	 	0.0	0	150.078243899974	150.178146600025	0.0999027000507339
119712	100	366	stimuli\movNat\waves\mn_waves08.jpg              	1	5	1	mn_waves08.jpg       	movNat   	3	waves     	38	waves08     	387	not_alive	0	moves	1	natural 	1	n	0	0    	 	0.0	0	150.228235000046	150.328143400024	0.0999083999777212
119862	100	367	stimuli\movNat\river\mn_river03.jpg              	1	5	1	mn_river03.jpg       	movNat   	3	river     	29	river03     	292	not_alive	0	moves	1	natural 	1	n	0	0    	 	0.0	0	150.37823110003998	150.478179299971	0.0999481999315321
120012	100	368	stimuli\animals\dog\animal_dog07.jpg             	1	5	1	animal_dog07.jpg     	animals  	0	dog       	11	dog07       	116	alive    	1	moves	1	natural 	1	n	0	0    	 	0.0	0	150.528242400032	150.628131299978	0.0998888999456539
120162	100	369	stimuli\animals\cat\animal_cat02.jpg             	1	5	1	animal_cat02.jpg     	animals  	0	cat       	6	cat02       	61	alive    	1	moves	1	natural 	1	n	0	0    	 	0.0	0	150.678241900052	150.778162000002	0.0999200999503955
120312	100	370	stimuli\movArt\bus\ma_bus09.jpg                  	1	5	1	ma_bus09.jpg         	movArt   	2	bus       	3	bus09       	38	not_alive	0	moves	1	artefact	0	n	0	0    	 	0.0	0	150.82823370001302	150.92813230003202	0.0998986000195145
120462	100	371	stimuli\plant\flower\plant_flower06.jpg          	1	5	1	plant_flower06.jpg   	plant    	6	flower    	16	flower06    	165	alive    	1	still	0	natural 	1	n	0	0    	 	0.0	0	150.978245700011	151.07815159997	0.099905899958685
120612	100	372	stimuli\nonmovNat\crystal\nmn_crystal10.jpg      	1	5	1	nmn_crystal10.jpg    	nonmovNat	5	crystal   	10	crystal10   	109	not_alive	0	still	0	natural 	1	n	1	0    	 	0.0	0	151.128219200065	151.228162999963	0.0999437998980283
120762	100	373	stimuli\nonmovNat\rock\nmn_rock05.jpg            	1	5	1	nmn_rock05.jpg       	nonmovNat	5	rock      	30	rock05      	304	not_alive	0	still	0	natural 	1	n	0	0    	 	0.0	0	151.278239100007	151.37813840003201	0.0998993000248447
120912	100	374	stimuli\movNat\fire\mn_fire10.jpg                	1	5	1	mn_fire10.jpg        	movNat   	3	fire      	15	fire10      	159	not_alive	0	moves	1	natural 	1	n	0	1    	f	0.302004399942234	1	151.428222800023	151.528180400026	0.0999576000031083
121063	100	375	stimuli\movNat\fire\mn_fire10.jpg                	1	5	1	mn_fire10.jpg        	movNat   	3	fire      	15	fire10      	159	not_alive	0	moves	1	natural 	1	n	0	0    	 	0.0	0	151.578448600019	151.678197800065	0.0997492000460624
121212	100	376	stimuli\plant2\lemontree\plant_lemontree09.jpg   	1	5	1	plant_lemontree09.jpg	plant2   	7	lemontree 	22	lemontree09 	228	alive    	1	still	0	natural 	1	n	0	0    	 	0.0	0	151.728281700052	151.828137799981	0.0998560999287292
121362	100	377	stimuli\movArt\helicopter\ma_helicopter09.jpg    	1	5	1	ma_helicopter09.jpg  	movArt   	2	helicopter	19	helicopter09	198	not_alive	0	moves	1	artefact	0	n	0	0    	 	0.0	0	151.87821720005	151.978120399988	0.0999031999381259
121512	100	378	stimuli\movNat\waterfall\mn_waterfall10.jpg      	1	5	1	mn_waterfall10.jpg   	movNat   	3	waterfall 	37	waterfall10 	379	not_alive	0	moves	1	natural 	1	n	0	0    	 	0.0	0	152.02820040006202	152.128125800053	0.0999253999907523
121662	100	379	stimuli\nonmovArt\clothespeg\nma_clothespeg03.jpg	1	5	1	nma_clothespeg03.jpg 	nonmovArt	4	clothespeg	8	clothespeg03	82	not_alive	0	still	0	artefact	0	n	0	0    	 	0.0	0	152.178258100059	152.27824799995898	0.0999898998998105
121812	100	380	stimuli\plant\vine\plant_vine05.jpg              	1	5	1	plant_vine05.jpg     	plant    	6	vine      	36	vine05      	364	alive    	1	still	0	natural 	1	n	0	0    	 	0.0	0	152.328213999979	152.428097900003	0.0998839000239968
121962	100	381	stimuli\movArt\bus\ma_bus03.jpg                  	1	5	1	ma_bus03.jpg         	movArt   	2	bus       	3	bus03       	32	not_alive	0	moves	1	artefact	0	n	0	0    	 	0.0	0	152.47821259999202	152.57815079996402	0.0999381999718025
122112	100	382	stimuli\movArt\train\ma_train03.jpg              	1	5	1	ma_train03.jpg       	movArt   	2	train     	34	train03     	342	not_alive	0	moves	1	artefact	0	n	0	0    	 	0.0	0	152.628202000051	152.7281219	0.0999198999488726
122262	100	383	stimuli\plant2\palmtree\plant_palmtree03.jpg     	1	5	1	plant_palmtree03.jpg 	plant2   	7	palmtree  	27	palmtree03  	272	alive    	1	still	0	natural 	1	n	0	0    	 	0.0	0	152.778201100067	152.878125000047	0.0999238999793306
122412	100	384	stimuli\movNat\waterfall\mn_waterfall09.jpg      	1	5	1	mn_waterfall09.jpg   	movNat   	3	waterfall 	37	waterfall09 	378	not_alive	0	moves	1	natural 	1	n	0	0    	 	0.0	0	152.92823580000498	153.028143899981	0.0999080999754369
122562	100	385	stimuli\movArt\boat\ma_boat10.jpg                	1	5	1	ma_boat10.jpg        	movArt   	2	boat      	2	boat10      	29	not_alive	0	moves	1	artefact	0	n	0	0    	 	0.0	0	153.078191900044	153.178117100033	0.0999251999892294
122712	100	386	stimuli\plant\vine\plant_vine06.jpg              	1	5	1	plant_vine06.jpg     	plant    	6	vine      	36	vine06      	365	alive    	1	still	0	natural 	1	n	0	0    	 	0.0	0	153.228196799988	153.328226000071	0.100029200082645
122863	100	387	stimuli\plant\flower\plant_flower04.jpg          	1	5	1	plant_flower04.jpg   	plant    	6	flower    	16	flower04    	163	alive    	1	still	0	natural 	1	n	0	0    	 	0.0	0	153.378400400048	153.478247500025	0.0998470999766141
123012	100	388	stimuli\movNat\fire\mn_fire02.jpg                	1	5	1	mn_fire02.jpg        	movNat   	3	fire      	15	fire02      	151	not_alive	0	moves	1	natural 	1	n	0	0    	 	0.0	0	153.528217000072	153.628128599958	0.0999115998856723
123162	100	389	stimuli\nonmovNat\sand\nmn_sand01.jpg            	1	5	1	nmn_sand01.jpg       	nonmovNat	5	sand      	31	sand01      	310	not_alive	0	still	0	natural 	1	n	0	0    	 	0.0	0	153.678200799972	153.778114699991	0.099913900019601
123312	100	390	stimuli\movArt\helicopter\ma_helicopter06.jpg    	1	5	1	ma_helicopter06.jpg  	movArt   	2	helicopter	19	helicopter06	195	not_alive	0	moves	1	artefact	0	n	0	0    	 	0.0	0	153.82818880002	153.92809619999	0.0999073999701067
123462	100	391	stimuli\plant\grass\plant_grass10.jpg            	1	5	1	plant_grass10.jpg    	plant    	6	grass     	17	grass10     	179	alive    	1	still	0	natural 	1	n	0	0    	 	0.0	0	153.978226899984	154.078113300027	0.09988640004303301
123612	100	392	stimuli\movNat\waves\mn_waves03.jpg              	1	5	1	mn_waves03.jpg       	movNat   	3	waves     	38	waves03     	382	not_alive	0	moves	1	natural 	1	n	0	0    	 	0.0	0	154.128177699982	154.228132199962	0.0999544999795034
123762	100	393	stimuli\nonmovArt\mug\nma_mug05.jpg              	1	5	1	nma_mug05.jpg        	nonmovArt	4	mug       	26	mug05       	264	not_alive	0	still	0	artefact	0	n	0	0    	 	0.0	0	154.278190399986	154.378119100002	0.0999287000158801
123912	100	394	stimuli\plant2\lemontree\plant_lemontree02.jpg   	1	5	1	plant_lemontree02.jpg	plant2   	7	lemontree 	22	lemontree02 	221	alive    	1	still	0	natural 	1	n	0	0    	 	0.0	0	154.428213000065	154.528108200058	0.0998951999936252
124062	100	395	stimuli\movNat\hotspring\mn_hotspring07.jpg      	1	5	1	mn_hotspring07.jpg   	movNat   	3	hotspring 	21	hotspring07 	216	not_alive	0	moves	1	natural 	1	n	0	0    	 	0.0	0	154.57821940001998	154.678107100073	0.0998877000529319
124212	100	396	stimuli\animals\cat\animal_cat03.jpg             	1	5	1	animal_cat03.jpg     	animals  	0	cat       	6	cat03       	62	alive    	1	moves	1	natural 	1	n	0	0    	 	0.0	0	154.7281831	154.828104299959	0.0999211999587714
124362	100	397	stimuli\movArt\car\ma_car08.jpg                  	1	5	1	ma_car08.jpg         	movArt   	2	car       	5	car08       	57	not_alive	0	moves	1	artefact	0	n	0	0    	 	0.0	0	154.878179099993	154.97809890005698	0.0999198000645265
124512	100	398	stimuli\animals2\tiger\animal_tiger04.jpg        	1	5	1	animal_tiger04.jpg   	animals2 	1	tiger     	33	tiger04     	333	alive    	1	moves	1	natural 	1	n	0	0    	 	0.0	0	155.028206899995	155.12817599996902	0.0999690999742597
124663	100	399	stimuli\plant2\moss\plant_moss06.jpg             	1	5	1	plant_moss06.jpg     	plant2   	7	moss      	25	moss06      	255	alive    	1	still	0	natural 	1	n	0	0    	 	0.0	0	155.178377000033	155.278162500006	0.0997854999732226
132629	100	400	stimuli\animals\horse\animal_horse09.jpg         	1	6	1	animal_horse09.jpg   	animals  	0	horse     	20	horse09     	208	alive    	1	moves	1	natural 	1	n	0	0    	 	0.0	0	163.144777200068	163.244667300023	0.0998900999547913
132779	100	401	stimuli\plant2\palmtree\plant_palmtree01.jpg     	1	6	1	plant_palmtree01.jpg 	plant2   	7	palmtree  	27	palmtree01  	270	alive    	1	still	0	natural 	1	n	0	0    	 	0.0	0	163.294732799986	163.39465559995702	0.0999227999709546
132929	100	402	stimuli\nonmovArt\bench\nma_bench01.jpg          	1	6	1	nma_bench01.jpg      	nonmovArt	4	bench     	1	bench01     	10	not_alive	0	still	0	artefact	0	n	0	0    	 	0.0	0	163.444745099987	163.54466200002898	0.0999169000424444
133079	100	403	stimuli\nonmovArt\clothespeg\nma_clothespeg09.jpg	1	6	1	nma_clothespeg09.jpg 	nonmovArt	4	clothespeg	8	clothespeg09	88	not_alive	0	still	0	artefact	0	n	0	0    	 	0.0	0	163.594746300019	163.694657400018	0.0999110999982804
133229	100	404	stimuli\nonmovNat\sand\nmn_sand04.jpg            	1	6	1	nmn_sand04.jpg       	nonmovNat	5	sand      	31	sand04      	313	not_alive	0	still	0	natural 	1	n	0	0    	 	0.0	0	163.744755099993	163.844665899989	0.099910799995996
133379	100	405	stimuli\nonmovArt\headphones\nma_headphones08.jpg	1	6	1	nma_headphones08.jpg 	nonmovArt	4	headphones	18	headphones08	187	not_alive	0	still	0	artefact	0	n	0	0    	 	0.0	0	163.894742200035	163.994661399978	0.0999191999435424
133529	100	406	stimuli\plant\tree\plant_tree04.jpg              	1	6	1	plant_tree04.jpg     	plant    	6	tree      	35	tree04      	353	alive    	1	still	0	natural 	1	n	0	0    	 	0.0	0	164.04472170001802	164.144646200002	0.0999244999838993
133679	100	407	stimuli\plant\cactus\plant_cactus09.jpg          	1	6	1	plant_cactus09.jpg   	plant    	6	cactus    	4	cactus09    	48	alive    	1	still	0	natural 	1	n	0	0    	 	0.0	0	164.194757699966	164.294622899964	0.0998651999980211
133829	100	408	stimuli\animals2\lemur\animal_lemur08.jpg        	1	6	1	animal_lemur08.jpg   	animals2 	1	lemur     	23	lemur08     	237	alive    	1	moves	1	natural 	1	n	0	0    	 	0.0	0	164.34474570001498	164.444689400028	0.0999437000136822
133979	100	409	stimuli\animals2\lemur\animal_lemur07.jpg        	1	6	1	animal_lemur07.jpg   	animals2 	1	lemur     	23	lemur07     	236	alive    	1	moves	1	natural 	1	n	0	0    	 	0.0	0	164.49473410006598	164.59465270000499	0.0999185999389737
134129	100	410	stimuli\nonmovNat\rock\nmn_rock04.jpg            	1	6	1	nmn_rock04.jpg       	nonmovNat	5	rock      	30	rock04      	303	not_alive	0	still	0	natural 	1	n	0	0    	 	0.0	0	164.644720499986	164.744618900004	0.0998984000179916
134279	100	411	stimuli\animals2\whale\animal_whale03.jpg        	1	6	1	animal_whale03.jpg   	animals2 	1	whale     	39	whale03     	392	alive    	1	moves	1	natural 	1	n	0	0    	 	0.0	0	164.794735300005	164.89464720001	0.099911900004372
134429	100	412	stimuli\movArt\train\ma_train05.jpg              	1	6	1	ma_train05.jpg       	movArt   	2	train     	34	train05     	344	not_alive	0	moves	1	artefact	0	n	0	0    	 	0.0	0	164.944713999983	165.04466190002898	0.0999479000456631
134579	100	413	stimuli\movNat\river\mn_river04.jpg              	1	6	1	mn_river04.jpg       	movNat   	3	river     	29	river04     	293	not_alive	0	moves	1	natural 	1	n	0	0    	 	0.0	0	165.094730200013	165.194618300069	0.0998881000559777
134729	100	414	stimuli\nonmovNat\shell\nmn_shell07.jpg          	1	6	1	nmn_shell07.jpg      	nonmovNat	5	shell     	32	shell07     	326	not_alive	0	still	0	natural 	1	n	0	0    	 	0.0	0	165.244725600001	165.344637800008	0.0999122000066563
134879	100	415	stimuli\plant2\clover\plant_clover09.jpg         	1	6	1	plant_clover09.jpg   	plant2   	7	clover    	9	clover09    	98	alive    	1	still	0	natural 	1	n	0	0    	 	0.0	0	165.394723900012	165.49463420000401	0.0999102999921888
135029	100	416	stimuli\movNat\waterfall\mn_waterfall01.jpg      	1	6	1	mn_waterfall01.jpg   	movNat   	3	waterfall 	37	waterfall01 	370	not_alive	0	moves	1	natural 	1	n	0	0    	 	0.0	0	165.544726600056	165.644640499959	0.0999138999031856
135179	100	417	stimuli\nonmovArt\lock\nma_lock03.jpg            	1	6	1	nma_lock03.jpg       	nonmovArt	4	lock      	24	lock03      	242	not_alive	0	still	0	artefact	0	n	0	0    	 	0.0	0	165.694730499992	165.79464910004802	0.0999186000553891
