onset	duration	eventnumber	stimulus_file	blockno	trialno	is_faststream	stim	stim_category	category_number	exemplar	exemplar_number	image_name	image_number	aliveness	aliveness_bin	movement	movement_bin	naturalness	naturalness_bin	response_hand_moves	istarget	response	keypressed	rt	correct	time_stimon	time_stimoff	stimdur
85086	100	0	stimuli\animals\horse\animal_horse06.jpg         	1	1	1	animal_horse06.jpg   	animals  	0	horse     	20	horse06     	205	alive    	1	moves	1	natural 	1	n	0	0    	 	0.0	0	107.22281840000001	107.3227294	0.0999110000002474
85236	100	1	stimuli\nonmovNat\shell\nmn_shell09.jpg          	1	1	1	nmn_shell09.jpg      	nonmovNat	5	shell     	32	shell09     	328	not_alive	0	still	0	natural 	1	n	0	0    	 	0.0	0	107.37283789999901	107.47272269999999	0.0998848000008365
85386	100	2	stimuli\movArt\helicopter\ma_helicopter06.jpg    	1	1	1	ma_helicopter06.jpg  	movArt   	2	helicopter	19	helicopter06	195	not_alive	0	moves	1	artefact	0	n	0	0    	 	0.0	0	107.5227868	107.6227153	0.0999284999998053
85536	100	3	stimuli\movNat\waterfall\mn_waterfall02.jpg      	1	1	1	mn_waterfall02.jpg   	movNat   	3	waterfall 	37	waterfall02 	371	not_alive	0	moves	1	natural 	1	n	0	0    	 	0.0	0	107.6728137	107.772733	0.0999192999997831
85686	100	4	stimuli\nonmovArt\bench\nma_bench05.jpg          	1	1	1	nma_bench05.jpg      	nonmovArt	4	bench     	1	bench05     	14	not_alive	0	still	0	artefact	0	n	0	0    	 	0.0	0	107.8228114	107.922713299999	0.0999018999991676
85836	100	5	stimuli\animals2\whale\animal_whale10.jpg        	1	1	1	animal_whale10.jpg   	animals2 	1	whale     	39	whale10     	399	alive    	1	moves	1	natural 	1	n	0	0    	 	0.0	0	107.9728275	108.07272649999999	0.09989899999982302
85986	100	6	stimuli\movArt\car\ma_car09.jpg                  	1	1	1	ma_car09.jpg         	movArt   	2	car       	5	car09       	58	not_alive	0	moves	1	artefact	0	n	0	0    	 	0.0	0	108.1227981	108.22268899999999	0.0998908999999912
86136	100	7	stimuli\animals\eagle\animal_eagle10.jpg         	1	1	1	animal_eagle10.jpg   	animals  	0	eagle     	13	eagle10     	139	alive    	1	moves	1	natural 	1	n	0	0    	 	0.0	0	108.2729702	108.37277890000001	0.0998086999998122
86286	100	8	stimuli\animals2\pigeon\animal_pigeon05.jpg      	1	1	1	animal_pigeon05.jpg  	animals2 	1	pigeon    	28	pigeon05    	284	alive    	1	moves	1	natural 	1	n	0	0    	 	0.0	0	108.423103	108.5227149	0.0996119000001272
86436	100	9	stimuli\nonmovArt\headphones\nma_headphones03.jpg	1	1	1	nma_headphones03.jpg 	nonmovArt	4	headphones	18	headphones03	182	not_alive	0	still	0	artefact	0	n	0	0    	 	0.0	0	108.57270600000001	108.672719	0.100013000000217
86586	100	10	stimuli\movArt\bus\ma_bus04.jpg                  	1	1	1	ma_bus04.jpg         	movArt   	2	bus       	3	bus04       	33	not_alive	0	moves	1	artefact	0	n	0	0    	 	0.0	0	108.72280239999999	108.8227543	0.09995190000063302
86736	100	11	stimuli\movArt\helicopter\ma_helicopter03.jpg    	1	1	1	ma_helicopter03.jpg  	movArt   	2	helicopter	19	helicopter03	192	not_alive	0	moves	1	artefact	0	n	0	0    	 	0.0	0	108.87280770000001	108.9727132	0.0999055000002044
86886	100	12	stimuli\movArt\boat\ma_boat06.jpg                	1	1	1	ma_boat06.jpg        	movArt   	2	boat      	2	boat06      	25	not_alive	0	moves	1	artefact	0	n	0	0    	 	0.0	0	109.02280220000002	109.122722	0.0999197999999523
87036	100	13	stimuli\nonmovArt\bench\nma_bench09.jpg          	1	1	1	nma_bench09.jpg      	nonmovArt	4	bench     	1	bench09     	18	not_alive	0	still	0	artefact	0	n	0	0    	 	0.0	0	109.17279520000001	109.27274569999999	0.0999504999999771
87186	100	14	stimuli\nonmovArt\clothespeg\nma_clothespeg05.jpg	1	1	1	nma_clothespeg05.jpg 	nonmovArt	4	clothespeg	8	clothespeg05	84	not_alive	0	still	0	artefact	0	n	0	0    	 	0.0	0	109.32282260000001	109.4227149	0.0998922999997376
87336	100	15	stimuli\nonmovNat\crystal\nmn_crystal07.jpg      	1	1	1	nmn_crystal07.jpg    	nonmovNat	5	crystal   	10	crystal07   	106	not_alive	0	still	0	natural 	1	n	0	0    	 	0.0	0	109.47279340000001	109.5727156	0.0999222000000372
87486	100	16	stimuli\nonmovNat\crystal\nmn_crystal04.jpg      	1	1	1	nmn_crystal04.jpg    	nonmovNat	5	crystal   	10	crystal04   	103	not_alive	0	still	0	natural 	1	n	0	0    	 	0.0	0	109.6227918	109.7227368	0.0999450000008437
87636	100	17	stimuli\nonmovNat\rock\nmn_rock05.jpg            	1	1	1	nmn_rock05.jpg       	nonmovNat	5	rock      	30	rock05      	304	not_alive	0	still	0	natural 	1	n	0	0    	 	0.0	0	109.77281509999999	109.8727072	0.0998921000000336
87786	100	18	stimuli\plant\grass\plant_grass01.jpg            	1	1	1	plant_grass01.jpg    	plant    	6	grass     	17	grass01     	170	alive    	1	still	0	natural 	1	n	1	0    	 	0.0	0	109.9228111	110.02283149999901	0.10002039999926599
87936	100	19	stimuli\nonmovNat\sand\nmn_sand02.jpg            	1	1	1	nmn_sand02.jpg       	nonmovNat	5	sand      	31	sand02      	311	not_alive	0	still	0	natural 	1	n	0	0    	 	0.0	0	110.0729702	110.1728375	0.0998673000003691
88086	100	20	stimuli\movNat\hotspring\mn_hotspring04.jpg      	1	1	1	mn_hotspring04.jpg   	movNat   	3	hotspring 	21	hotspring04 	213	not_alive	0	moves	1	natural 	1	n	0	1    	f	0.40007839999998396	1	110.2227997	110.32270259999999	0.0999028999995062
88236	100	21	stimuli\movNat\fire\mn_fire02.jpg                	1	1	1	mn_fire02.jpg        	movNat   	3	fire      	15	fire02      	151	not_alive	0	moves	1	natural 	1	n	1	0    	 	0.0	0	110.3727957	110.4727338	0.0999381000001449
88386	100	22	stimuli\plant2\clover\plant_clover10.jpg         	1	1	1	plant_clover10.jpg   	plant2   	7	clover    	9	clover10    	99	alive    	1	still	0	natural 	1	n	0	0    	 	0.0	0	110.5227903	110.6227152	0.0999249000005875
88536	100	23	stimuli\nonmovArt\mug\nma_mug06.jpg              	1	1	1	nma_mug06.jpg        	nonmovArt	4	mug       	26	mug06       	265	not_alive	0	still	0	artefact	0	n	0	1    	f	0.4000873999993929	1	110.6727753	110.7727051	0.0999298000006092
88686	100	24	stimuli\plant2\clover\plant_clover10.jpg         	1	1	1	plant_clover10.jpg   	plant2   	7	clover    	9	clover10    	99	alive    	1	still	0	natural 	1	n	0	0    	 	0.0	0	110.8227706	110.9227111	0.0999405000002298
88836	100	25	stimuli\movArt\train\ma_train09.jpg              	1	1	1	ma_train09.jpg       	movArt   	2	train     	34	train09     	348	not_alive	0	moves	1	artefact	0	n	0	0    	 	0.0	0	110.97279440000001	111.0726998	0.0999054000003525
88986	100	26	stimuli\nonmovArt\lock\nma_lock03.jpg            	1	1	1	nma_lock03.jpg       	nonmovArt	4	lock      	24	lock03      	242	not_alive	0	still	0	artefact	0	n	0	0    	 	0.0	0	111.1227835	111.2227313	0.0999478000003364
89136	100	27	stimuli\plant\flower\plant_flower04.jpg          	1	1	1	plant_flower04.jpg   	plant    	6	flower    	16	flower04    	163	alive    	1	still	0	natural 	1	n	0	0    	 	0.0	0	111.27281859999901	111.3727129	0.0998943000004146
89286	100	28	stimuli\nonmovArt\lock\nma_lock07.jpg            	1	1	1	nma_lock07.jpg       	nonmovArt	4	lock      	24	lock07      	246	not_alive	0	still	0	artefact	0	n	0	0    	 	0.0	0	111.42277990000001	111.52269709999999	0.0999172000001635
89436	100	29	stimuli\plant\cactus\plant_cactus03.jpg          	1	1	1	plant_cactus03.jpg   	plant    	6	cactus    	4	cactus03    	42	alive    	1	still	0	natural 	1	n	0	0    	 	0.0	0	111.5727814	111.672696	0.0999145999994652
89586	100	30	stimuli\plant\vine\plant_vine04.jpg              	1	1	1	plant_vine04.jpg     	plant    	6	vine      	36	vine04      	363	alive    	1	still	0	natural 	1	n	0	0    	 	0.0	0	111.72281299999999	111.8227912	0.0999781999998958
89736	100	31	stimuli\nonmovArt\bench\nma_bench08.jpg          	1	1	1	nma_bench08.jpg      	nonmovArt	4	bench     	1	bench08     	17	not_alive	0	still	0	artefact	0	n	0	0    	 	0.0	0	111.8729716	111.972726	0.0997544000001653
89886	100	32	stimuli\animals2\lemur\animal_lemur08.jpg        	1	1	1	animal_lemur08.jpg   	animals2 	1	lemur     	23	lemur08     	237	alive    	1	moves	1	natural 	1	n	0	0    	 	0.0	0	112.0227871	112.1226924	0.0999053000005005
90036	100	33	stimuli\animals2\tiger\animal_tiger02.jpg        	1	1	1	animal_tiger02.jpg   	animals2 	1	tiger     	33	tiger02     	331	alive    	1	moves	1	natural 	1	n	0	0    	 	0.0	0	112.1728017	112.27268729999999	0.0998856000005616
90186	100	34	stimuli\animals\cat\animal_cat04.jpg             	1	1	1	animal_cat04.jpg     	animals  	0	cat       	6	cat04       	63	alive    	1	moves	1	natural 	1	n	1	0    	 	0.0	0	112.3227803	112.42269250000001	0.0999122000002898
90336	100	35	stimuli\plant\tree\plant_tree06.jpg              	1	1	1	plant_tree06.jpg     	plant    	6	tree      	35	tree06      	355	alive    	1	still	0	natural 	1	n	0	0    	 	0.0	0	112.47278829999999	112.57270990000002	0.099921600000016
90486	100	36	stimuli\movArt\bus\ma_bus06.jpg                  	1	1	1	ma_bus06.jpg         	movArt   	2	bus       	3	bus06       	35	not_alive	0	moves	1	artefact	0	n	0	1    	f	0.39197140000033	1	112.62277209999999	112.7226888	0.0999166999999943
90636	100	37	stimuli\nonmovNat\cliff\nmn_cliff08.jpg          	1	1	1	nmn_cliff08.jpg      	nonmovNat	5	cliff     	7	cliff08     	77	not_alive	0	still	0	natural 	1	n	0	0    	 	0.0	0	112.7727693	112.87269779999998	0.0999284999998053
90786	100	38	stimuli\animals2\whale\animal_whale06.jpg        	1	1	1	animal_whale06.jpg   	animals2 	1	whale     	39	whale06     	395	alive    	1	moves	1	natural 	1	n	0	0    	 	0.0	0	112.92276100000001	113.02271359999999	0.0999526000005062
90936	100	39	stimuli\animals2\lemur\animal_lemur04.jpg        	1	1	1	animal_lemur04.jpg   	animals2 	1	lemur     	23	lemur04     	233	alive    	1	moves	1	natural 	1	n	0	0    	 	0.0	0	113.0727639	113.1726773	0.0999134000003323
91086	100	40	stimuli\nonmovNat\shell\nmn_shell08.jpg          	1	1	1	nmn_shell08.jpg      	nonmovNat	5	shell     	32	shell08     	327	not_alive	0	still	0	natural 	1	n	0	0    	 	0.0	0	113.22276509999999	113.3227071	0.0999419999998281
91236	100	41	stimuli\animals\eagle\animal_eagle10.jpg         	1	1	1	animal_eagle10.jpg   	animals  	0	eagle     	13	eagle10     	139	alive    	1	moves	1	natural 	1	n	0	0    	 	0.0	0	113.3727506	113.4726655	0.0999148999999306
91386	100	42	stimuli\animals2\lemur\animal_lemur09.jpg        	1	1	1	animal_lemur09.jpg   	animals2 	1	lemur     	23	lemur09     	238	alive    	1	moves	1	natural 	1	n	0	0    	 	0.0	0	113.52279579999998	113.62276000000001	0.0999642000006133
91536	100	43	stimuli\plant2\moss\plant_moss10.jpg             	1	1	1	plant_moss10.jpg     	plant2   	7	moss      	25	moss10      	259	alive    	1	still	0	natural 	1	n	0	0    	 	0.0	0	113.67289879999998	113.7726737	0.0997749000007388
91686	100	44	stimuli\movArt\car\ma_car04.jpg                  	1	1	1	ma_car04.jpg         	movArt   	2	car       	5	car04       	53	not_alive	0	moves	1	artefact	0	n	0	0    	 	0.0	0	113.8227463	113.9226888	0.0999424999999973
91836	100	45	stimuli\nonmovArt\lock\nma_lock03.jpg            	1	1	1	nma_lock03.jpg       	nonmovArt	4	lock      	24	lock03      	242	not_alive	0	still	0	artefact	0	n	0	0    	 	0.0	0	113.97276709999998	114.0726736	0.0999064999996335
91986	100	46	stimuli\movArt\bus\ma_bus10.jpg                  	1	1	1	ma_bus10.jpg         	movArt   	2	bus       	3	bus10       	39	not_alive	0	moves	1	artefact	0	n	0	0    	 	0.0	0	114.1227554	114.22267759999998	0.0999222000000372
92136	100	47	stimuli\animals2\tiger\animal_tiger10.jpg        	1	1	1	animal_tiger10.jpg   	animals2 	1	tiger     	33	tiger10     	339	alive    	1	moves	1	natural 	1	n	0	0    	 	0.0	0	114.27278999999999	114.3726594	0.0998693999999886
92286	100	48	stimuli\movNat\hotspring\mn_hotspring06.jpg      	1	1	1	mn_hotspring06.jpg   	movNat   	3	hotspring 	21	hotspring06 	215	not_alive	0	moves	1	natural 	1	n	0	0    	 	0.0	0	114.42275179999999	114.52267590000001	0.0999240999999528
92436	100	49	stimuli\nonmovArt\clothespeg\nma_clothespeg10.jpg	1	1	1	nma_clothespeg10.jpg 	nonmovArt	4	clothespeg	8	clothespeg10	89	not_alive	0	still	0	artefact	0	n	0	0    	 	0.0	0	114.5727415	114.6726679	0.0999264000001858
92586	100	50	stimuli\animals\eagle\animal_eagle04.jpg         	1	1	1	animal_eagle04.jpg   	animals  	0	eagle     	13	eagle04     	133	alive    	1	moves	1	natural 	1	n	0	0    	 	0.0	0	114.72278700000001	114.822696	0.0999090000004798
92736	100	51	stimuli\nonmovNat\rock\nmn_rock06.jpg            	1	1	1	nmn_rock06.jpg       	nonmovNat	5	rock      	30	rock06      	305	not_alive	0	still	0	natural 	1	n	0	0    	 	0.0	0	114.87275009999999	114.97268629999999	0.0999361999993198
92886	100	52	stimuli\nonmovNat\cliff\nmn_cliff02.jpg          	1	1	1	nmn_cliff02.jpg      	nonmovNat	5	cliff     	7	cliff02     	71	not_alive	0	still	0	natural 	1	n	0	0    	 	0.0	0	115.022768	115.12269909999999	0.0999311000005036
93036	100	53	stimuli\plant\grass\plant_grass09.jpg            	1	1	1	plant_grass09.jpg    	plant    	6	grass     	17	grass09     	178	alive    	1	still	0	natural 	1	n	0	0    	 	0.0	0	115.1727723	115.27268090000001	0.099908599999253
93186	100	54	stimuli\plant\tree\plant_tree10.jpg              	1	1	1	plant_tree10.jpg     	plant    	6	tree      	35	tree10      	359	alive    	1	still	0	natural 	1	n	0	0    	 	0.0	0	115.3227515	115.42275139999902	0.0999998999996023
93336	100	55	stimuli\animals\dog\animal_dog04.jpg             	1	1	1	animal_dog04.jpg     	animals  	0	dog       	11	dog04       	113	alive    	1	moves	1	natural 	1	n	1	0    	 	0.0	0	115.4728511	115.57268640000001	0.0998352999995404
93486	100	56	stimuli\movNat\waves\mn_waves07.jpg              	1	1	1	mn_waves07.jpg       	movNat   	3	waves     	38	waves07     	386	not_alive	0	moves	1	natural 	1	n	0	0    	 	0.0	0	115.6227418	115.72268590000002	0.0999441000003571
93636	100	57	stimuli\movNat\river\mn_river08.jpg              	1	1	1	mn_river08.jpg       	movNat   	3	river     	29	river08     	297	not_alive	0	moves	1	natural 	1	n	0	1    	f	0.3918697999997679	1	115.7727466	115.87269609999998	0.0999495000005481
93786	100	58	stimuli\animals\dolphin\animal_dolphin05.jpg     	1	1	1	animal_dolphin05.jpg 	animals  	0	dolphin   	12	dolphin05   	124	alive    	1	moves	1	natural 	1	n	0	0    	 	0.0	0	115.9227332	116.0226936	0.0999603999998726
93936	100	59	stimuli\nonmovNat\sand\nmn_sand10.jpg            	1	1	1	nmn_sand10.jpg       	nonmovNat	5	sand      	31	sand10      	319	not_alive	0	still	0	natural 	1	n	0	0    	 	0.0	0	116.07273980000001	116.1726483	0.0999085000003106
94086	100	60	stimuli\plant\vine\plant_vine01.jpg              	1	1	1	plant_vine01.jpg     	plant    	6	vine      	36	vine01      	360	alive    	1	still	0	natural 	1	n	0	0    	 	0.0	0	116.22273159999999	116.32266640000002	0.0999348000004829
94236	100	61	stimuli\plant2\lemontree\plant_lemontree06.jpg   	1	1	1	plant_lemontree06.jpg	plant2   	7	lemontree 	22	lemontree06 	225	alive    	1	still	0	natural 	1	n	0	0    	 	0.0	0	116.3727665	116.4726564	0.0998899000005622
94386	100	62	stimuli\animals2\bee\animal_bee03.jpg            	1	1	1	animal_bee03.jpg     	animals2 	1	bee       	0	bee03       	2	alive    	1	moves	1	natural 	1	n	0	0    	 	0.0	0	116.5227763	116.6226646	0.0998882999992929
94536	100	63	stimuli\animals\cat\animal_cat08.jpg             	1	1	1	animal_cat08.jpg     	animals  	0	cat       	6	cat08       	67	alive    	1	moves	1	natural 	1	n	0	0    	 	0.0	0	116.6727511	116.77267340000002	0.0999222999998892
94686	100	64	stimuli\nonmovNat\sand\nmn_sand09.jpg            	1	1	1	nmn_sand09.jpg       	nonmovNat	5	sand      	31	sand09      	318	not_alive	0	still	0	natural 	1	n	0	0    	 	0.0	0	116.82276340000001	116.92267609999999	0.0999127000004591
94836	100	65	stimuli\animals\dolphin\animal_dolphin07.jpg     	1	1	1	animal_dolphin07.jpg 	animals  	0	dolphin   	12	dolphin07   	126	alive    	1	moves	1	natural 	1	n	0	0    	 	0.0	0	116.97273740000001	117.07268959999999	0.0999521999992794
94986	100	66	stimuli\animals\dolphin\animal_dolphin03.jpg     	1	1	1	animal_dolphin03.jpg 	animals  	0	dolphin   	12	dolphin03   	122	alive    	1	moves	1	natural 	1	n	0	0    	 	0.0	0	117.1226793	117.222775	0.100095700000566
95136	100	67	stimuli\movArt\train\ma_train09.jpg              	1	1	1	ma_train09.jpg       	movArt   	2	train     	34	train09     	348	not_alive	0	moves	1	artefact	0	n	0	0    	 	0.0	0	117.2727846	117.37264280000001	0.0998582000001988
95286	100	68	stimuli\movArt\helicopter\ma_helicopter02.jpg    	1	1	1	ma_helicopter02.jpg  	movArt   	2	helicopter	19	helicopter02	191	not_alive	0	moves	1	artefact	0	n	0	0    	 	0.0	0	117.4227223	117.52264840000002	0.0999260999997204
95436	100	69	stimuli\animals\dog\animal_dog09.jpg             	1	1	1	animal_dog09.jpg     	animals  	0	dog       	11	dog09       	118	alive    	1	moves	1	natural 	1	n	0	0    	 	0.0	0	117.57275	117.6726529	0.0999028999995062
95586	100	70	stimuli\animals\cat\animal_cat06.jpg             	1	1	1	animal_cat06.jpg     	animals  	0	cat       	6	cat06       	65	alive    	1	moves	1	natural 	1	n	0	0    	 	0.0	0	117.7227299	117.8226431	0.0999132000006284
95736	100	71	stimuli\nonmovNat\rock\nmn_rock10.jpg            	1	1	1	nmn_rock10.jpg       	nonmovNat	5	rock      	30	rock10      	309	not_alive	0	still	0	natural 	1	n	0	0    	 	0.0	0	117.8727203	117.97266850000001	0.0999481999997442
95886	100	72	stimuli\plant2\fern\plant_fern08.jpg             	1	1	1	plant_fern08.jpg     	plant2   	7	fern      	14	fern08      	147	alive    	1	still	0	natural 	1	n	0	0    	 	0.0	0	118.02274540000002	118.1226636	0.0999182000005021
96036	100	73	stimuli\movArt\boat\ma_boat03.jpg                	1	1	1	ma_boat03.jpg        	movArt   	2	boat      	2	boat03      	22	not_alive	0	moves	1	artefact	0	n	0	0    	 	0.0	0	118.1727513	118.2726682	0.0999169000006077
96186	100	74	stimuli\movArt\car\ma_car01.jpg                  	1	1	1	ma_car01.jpg         	movArt   	2	car       	5	car01       	50	not_alive	0	moves	1	artefact	0	n	0	0    	 	0.0	0	118.32272759999998	118.4226315	0.0999038999998447
96336	100	75	stimuli\plant2\moss\plant_moss08.jpg             	1	1	1	plant_moss08.jpg     	plant2   	7	moss      	25	moss08      	257	alive    	1	still	0	natural 	1	n	0	0    	 	0.0	0	118.4727494	118.572643	0.099893599999632
96486	100	76	stimuli\plant\tree\plant_tree01.jpg              	1	1	1	plant_tree01.jpg     	plant    	6	tree      	35	tree01      	350	alive    	1	still	0	natural 	1	n	0	0    	 	0.0	0	118.6227545	118.72263410000001	0.0998795999994399
96636	100	77	stimuli\movNat\waves\mn_waves03.jpg              	1	1	1	mn_waves03.jpg       	movNat   	3	waves     	38	waves03     	382	not_alive	0	moves	1	natural 	1	n	0	0    	 	0.0	0	118.77272109999998	118.87265520000001	0.0999340999997002
96786	100	78	stimuli\nonmovNat\cliff\nmn_cliff10.jpg          	1	1	1	nmn_cliff10.jpg      	nonmovNat	5	cliff     	7	cliff10     	79	not_alive	0	still	0	natural 	1	n	0	0    	 	0.0	0	118.92284169999901	119.02271370000001	0.0998720000006869
96936	100	79	stimuli\movNat\waterfall\mn_waterfall01.jpg      	1	1	1	mn_waterfall01.jpg   	movNat   	3	waterfall 	37	waterfall01 	370	not_alive	0	moves	1	natural 	1	n	0	0    	 	0.0	0	119.07281979999999	119.17263390000002	0.0998141000000032
101402	100	80	stimuli\plant2\clover\plant_clover05.jpg         	1	2	1	plant_clover05.jpg   	plant2   	7	clover    	9	clover05    	94	alive    	1	still	0	natural 	1	n	0	0    	 	0.0	0	123.5393483	123.63924909999999	0.0999007999998866
101552	100	81	stimuli\animals2\bee\animal_bee04.jpg            	1	2	1	animal_bee04.jpg     	animals2 	1	bee       	0	bee04       	3	alive    	1	moves	1	natural 	1	n	0	0    	 	0.0	0	123.6893232	123.7892389	0.0999156999996557
101702	100	82	stimuli\plant\flower\plant_flower05.jpg          	1	2	1	plant_flower05.jpg   	plant    	6	flower    	16	flower05    	164	alive    	1	still	0	natural 	1	n	0	0    	 	0.0	0	123.83932309999999	123.93924799999999	0.099924899999678
101852	100	83	stimuli\animals2\pigeon\animal_pigeon08.jpg      	1	2	1	animal_pigeon08.jpg  	animals2 	1	pigeon    	28	pigeon08    	287	alive    	1	moves	1	natural 	1	n	0	0    	 	0.0	0	123.98931609999998	124.0892409	0.099924799999826
102002	100	84	stimuli\movNat\river\mn_river02.jpg              	1	2	1	mn_river02.jpg       	movNat   	3	river     	29	river02     	291	not_alive	0	moves	1	natural 	1	n	0	0    	 	0.0	0	124.1393202	124.2392377	0.0999174999997194
102152	100	85	stimuli\animals2\pigeon\animal_pigeon06.jpg      	1	2	1	animal_pigeon06.jpg  	animals2 	1	pigeon    	28	pigeon06    	285	alive    	1	moves	1	natural 	1	n	0	0    	 	0.0	0	124.2893153	124.3892324	0.0999171000003116
102302	100	86	stimuli\nonmovArt\headphones\nma_headphones07.jpg	1	2	1	nma_headphones07.jpg 	nonmovArt	4	headphones	18	headphones07	186	not_alive	0	still	0	artefact	0	n	0	0    	 	0.0	0	124.43932190000001	124.53923859999999	0.0999166999999943
102452	100	87	stimuli\plant2\moss\plant_moss01.jpg             	1	2	1	plant_moss01.jpg     	plant2   	7	moss      	25	moss01      	250	alive    	1	still	0	natural 	1	n	0	0    	 	0.0	0	124.5893144	124.68924009999998	0.0999256999994031
102602	100	88	stimuli\movNat\river\mn_river02.jpg              	1	2	1	mn_river02.jpg       	movNat   	3	river     	29	river02     	291	not_alive	0	moves	1	natural 	1	n	0	0    	 	0.0	0	124.739333	124.8392348	0.0999018000002252
102752	100	89	stimuli\plant\cactus\plant_cactus01.jpg          	1	2	1	plant_cactus01.jpg   	plant    	6	cactus    	4	cactus01    	40	alive    	1	still	0	natural 	1	n	0	0    	 	0.0	0	124.8893071	124.98923119999999	0.0999240999999528
102902	100	90	stimuli\plant2\palmtree\plant_palmtree02.jpg     	1	2	1	plant_palmtree02.jpg 	plant2   	7	palmtree  	27	palmtree02  	271	alive    	1	still	0	natural 	1	n	0	0    	 	0.0	0	125.0393727	125.1394163	0.10004359999948101
103052	100	91	stimuli\plant\flower\plant_flower03.jpg          	1	2	1	plant_flower03.jpg   	plant    	6	flower    	16	flower03    	162	alive    	1	still	0	natural 	1	n	1	0    	 	0.0	0	125.18933009999999	125.2892357	0.0999056000000564
103202	100	92	stimuli\movNat\waterfall\mn_waterfall10.jpg      	1	2	1	mn_waterfall10.jpg   	movNat   	3	waterfall 	37	waterfall10 	379	not_alive	0	moves	1	natural 	1	n	0	0    	 	0.0	0	125.339322	125.43925039999999	0.0999283999999534
103352	100	93	stimuli\nonmovArt\mug\nma_mug05.jpg              	1	2	1	nma_mug05.jpg        	nonmovArt	4	mug       	26	mug05       	264	not_alive	0	still	0	artefact	0	n	0	1    	f	0.391956399999799	1	125.4893064	125.58922820000001	0.0999217999997199
103502	100	94	stimuli\plant\grass\plant_grass01.jpg            	1	2	1	plant_grass01.jpg    	plant    	6	grass     	17	grass01     	170	alive    	1	still	0	natural 	1	n	0	0    	 	0.0	0	125.6393179	125.73924050000001	0.0999226000003545
103652	100	95	stimuli\plant\cactus\plant_cactus03.jpg          	1	2	1	plant_cactus03.jpg   	plant    	6	cactus    	4	cactus03    	42	alive    	1	still	0	natural 	1	n	0	0    	 	0.0	0	125.7893067	125.8892263	0.0999196000002484
103802	100	96	stimuli\movArt\train\ma_train02.jpg              	1	2	1	ma_train02.jpg       	movArt   	2	train     	34	train02     	341	not_alive	0	moves	1	artefact	0	n	0	0    	 	0.0	0	125.9393199	126.0392321	0.0999122000002898
103952	100	97	stimuli\nonmovNat\crystal\nmn_crystal04.jpg      	1	2	1	nmn_crystal04.jpg    	nonmovNat	5	crystal   	10	crystal04   	103	not_alive	0	still	0	natural 	1	n	0	0    	 	0.0	0	126.0893055	126.1892278	0.0999222999998892
104102	100	98	stimuli\plant2\lemontree\plant_lemontree05.jpg   	1	2	1	plant_lemontree05.jpg	plant2   	7	lemontree 	22	lemontree05 	224	alive    	1	still	0	natural 	1	n	0	0    	 	0.0	0	126.2393042	126.33922179999999	0.0999175999995714
104252	100	99	stimuli\plant2\fern\plant_fern10.jpg             	1	2	1	plant_fern10.jpg     	plant2   	7	fern      	14	fern10      	149	alive    	1	still	0	natural 	1	n	0	0    	 	0.0	0	126.3893191	126.48921750000001	0.0998983999998017
104402	100	100	stimuli\plant2\palmtree\plant_palmtree09.jpg     	1	2	1	plant_palmtree09.jpg 	plant2   	7	palmtree  	27	palmtree09  	278	alive    	1	still	0	natural 	1	n	0	0    	 	0.0	0	126.5393596	126.63921200000001	0.0998523999996905
104552	100	101	stimuli\movNat\hotspring\mn_hotspring02.jpg      	1	2	1	mn_hotspring02.jpg   	movNat   	3	hotspring 	21	hotspring02 	211	not_alive	0	moves	1	natural 	1	n	0	0    	 	0.0	0	126.68928600000001	126.7892203	0.0999343000003136
104702	100	102	stimuli\movArt\boat\ma_boat04.jpg                	1	2	1	ma_boat04.jpg        	movArt   	2	boat      	2	boat04      	23	not_alive	0	moves	1	artefact	0	n	0	0    	 	0.0	0	126.83939009999999	126.9392355	0.0998454000000492
104852	100	103	stimuli\animals2\tiger\animal_tiger04.jpg        	1	2	1	animal_tiger04.jpg   	animals2 	1	tiger     	33	tiger04     	333	alive    	1	moves	1	natural 	1	n	0	0    	 	0.0	0	126.9894077	127.08919840000001	0.09979070000008501
105002	100	104	stimuli\plant2\palmtree\plant_palmtree06.jpg     	1	2	1	plant_palmtree06.jpg 	plant2   	7	palmtree  	27	palmtree06  	275	alive    	1	still	0	natural 	1	n	0	0    	 	0.0	0	127.1393121	127.23921969999999	0.099907599999824
105152	100	105	stimuli\nonmovNat\shell\nmn_shell05.jpg          	1	2	1	nmn_shell05.jpg      	nonmovNat	5	shell     	32	shell05     	324	not_alive	0	still	0	natural 	1	n	0	0    	 	0.0	0	127.2892884	127.3891945	0.0999060999993162
105302	100	106	stimuli\animals\horse\animal_horse07.jpg         	1	2	1	animal_horse07.jpg   	animals  	0	horse     	20	horse07     	206	alive    	1	moves	1	natural 	1	n	0	0    	 	0.0	0	127.4392952	127.53922890000001	0.0999337000002924
105452	100	107	stimuli\animals2\bee\animal_bee02.jpg            	1	2	1	animal_bee02.jpg     	animals2 	1	bee       	0	bee02       	1	alive    	1	moves	1	natural 	1	n	1	0    	 	0.0	0	127.5892855	127.68921	0.0999244999993607
105602	100	108	stimuli\plant\vine\plant_vine10.jpg              	1	2	1	plant_vine10.jpg     	plant    	6	vine      	36	vine10      	369	alive    	1	still	0	natural 	1	n	0	0    	 	0.0	0	127.73933079999999	127.83921670000001	0.0998859000001175
105752	100	109	stimuli\animals\horse\animal_horse03.jpg         	1	2	1	animal_horse03.jpg   	animals  	0	horse     	20	horse03     	202	alive    	1	moves	1	natural 	1	n	1	1    	f	-0.00795190000008	1	127.88928700000001	127.9892088	0.0999217999997199
105902	100	110	stimuli\movNat\fire\mn_fire05.jpg                	1	2	1	mn_fire05.jpg        	movNat   	3	fire      	15	fire05      	154	not_alive	0	moves	1	natural 	1	n	0	0    	 	0.0	0	128.0392918	128.1392054	0.0999136000000362
106052	100	111	stimuli\nonmovArt\mug\nma_mug04.jpg              	1	2	1	nma_mug04.jpg        	nonmovArt	4	mug       	26	mug04       	263	not_alive	0	still	0	artefact	0	n	0	1    	f	0.391976799999611	1	128.1892885	128.289205999999	0.0999174999997194
106202	100	112	stimuli\nonmovArt\clothespeg\nma_clothespeg04.jpg	1	2	1	nma_clothespeg04.jpg 	nonmovArt	4	clothespeg	8	clothespeg04	83	not_alive	0	still	0	artefact	0	n	0	0    	 	0.0	0	128.33928970000002	128.4392472	0.0999574999996184
106352	100	113	stimuli\animals\dog\animal_dog03.jpg             	1	2	1	animal_dog03.jpg     	animals  	0	dog       	11	dog03       	112	alive    	1	moves	1	natural 	1	n	0	0    	 	0.0	0	128.4892834	128.5892253	0.0999418999999761
106502	100	114	stimuli\movNat\waves\mn_waves07.jpg              	1	2	1	mn_waves07.jpg       	movNat   	3	waves     	38	waves07     	386	not_alive	0	moves	1	natural 	1	n	0	0    	 	0.0	0	128.6394086	128.7392259	0.0998172999998132
106652	100	115	stimuli\animals2\whale\animal_whale03.jpg        	1	2	1	animal_whale03.jpg   	animals2 	1	whale     	39	whale03     	392	alive    	1	moves	1	natural 	1	n	0	0    	 	0.0	0	128.78929	128.889198	0.0999080000001413
106802	100	116	stimuli\movNat\fire\mn_fire10.jpg                	1	2	1	mn_fire10.jpg        	movNat   	3	fire      	15	fire10      	159	not_alive	0	moves	1	natural 	1	n	0	0    	 	0.0	0	128.93928929999902	129.03920540000001	0.0999161000008825
106952	100	117	stimuli\plant2\fern\plant_fern09.jpg             	1	2	1	plant_fern09.jpg     	plant2   	7	fern      	14	fern09      	148	alive    	1	still	0	natural 	1	n	0	0    	 	0.0	0	129.08929070000002	129.18919509999998	0.09990440000001401
107102	100	118	stimuli\nonmovArt\headphones\nma_headphones02.jpg	1	2	1	nma_headphones02.jpg 	nonmovArt	4	headphones	18	headphones02	181	not_alive	0	still	0	artefact	0	n	0	0    	 	0.0	0	129.23927700000002	129.3392042	0.0999271999999109
107252	100	119	stimuli\plant2\lemontree\plant_lemontree01.jpg   	1	2	1	plant_lemontree01.jpg	plant2   	7	lemontree 	22	lemontree01 	220	alive    	1	still	0	natural 	1	n	0	0    	 	0.0	0	129.3892736	129.489192	0.09991840000020599
107402	100	120	stimuli\animals\cat\animal_cat04.jpg             	1	2	1	animal_cat04.jpg     	animals  	0	cat       	6	cat04       	63	alive    	1	moves	1	natural 	1	n	0	0    	 	0.0	0	129.5392792	129.6391971	0.0999179000000367
107552	100	121	stimuli\plant2\moss\plant_moss04.jpg             	1	2	1	plant_moss04.jpg     	plant2   	7	moss      	25	moss04      	253	alive    	1	still	0	natural 	1	n	0	0    	 	0.0	0	129.68927040000003	129.7891874	0.0999169999995501
107702	100	122	stimuli\plant2\lemontree\plant_lemontree10.jpg   	1	2	1	plant_lemontree10.jpg	plant2   	7	lemontree 	22	lemontree10 	229	alive    	1	still	0	natural 	1	n	0	0    	 	0.0	0	129.8392812	129.939167	0.0998857999993561
107852	100	123	stimuli\movArt\train\ma_train01.jpg              	1	2	1	ma_train01.jpg       	movArt   	2	train     	34	train01     	340	not_alive	0	moves	1	artefact	0	n	0	0    	 	0.0	0	129.9892711	130.0891906	0.09991949999948699
108002	100	124	stimuli\nonmovArt\headphones\nma_headphones06.jpg	1	2	1	nma_headphones06.jpg 	nonmovArt	4	headphones	18	headphones06	185	not_alive	0	still	0	artefact	0	n	0	0    	 	0.0	0	130.13929240000002	130.23916709999997	0.0998746999994182
108152	100	125	stimuli\animals\horse\animal_horse02.jpg         	1	2	1	animal_horse02.jpg   	animals  	0	horse     	20	horse02     	201	alive    	1	moves	1	natural 	1	n	0	0    	 	0.0	0	130.2892633	130.3892242	0.0999609000000418
108302	100	126	stimuli\movNat\fire\mn_fire04.jpg                	1	2	1	mn_fire04.jpg        	movNat   	3	fire      	15	fire04      	153	not_alive	0	moves	1	natural 	1	n	0	0    	 	0.0	0	130.43936259999998	130.53920459999998	0.0998419999996258
108452	100	127	stimuli\nonmovArt\bench\nma_bench02.jpg          	1	2	1	nma_bench02.jpg      	nonmovArt	4	bench     	1	bench02     	11	not_alive	0	still	0	artefact	0	n	0	0    	 	0.0	0	130.5892582	130.68918689999998	0.0999287000004187
108602	100	128	stimuli\movArt\boat\ma_boat04.jpg                	1	2	1	ma_boat04.jpg        	movArt   	2	boat      	2	boat04      	23	not_alive	0	moves	1	artefact	0	n	0	0    	 	0.0	0	130.7392916	130.83920659999998	0.0999149999997826
108752	100	129	stimuli\movNat\waterfall\mn_waterfall09.jpg      	1	2	1	mn_waterfall09.jpg   	movNat   	3	waterfall 	37	waterfall09 	378	not_alive	0	moves	1	natural 	1	n	0	0    	 	0.0	0	130.8892741	130.98918600000002	0.0999118999998245
108902	100	130	stimuli\movNat\fire\mn_fire08.jpg                	1	2	1	mn_fire08.jpg        	movNat   	3	fire      	15	fire08      	157	not_alive	0	moves	1	natural 	1	n	0	0    	 	0.0	0	131.0392792	131.1391866	0.0999074000001201
109052	100	131	stimuli\nonmovArt\lock\nma_lock10.jpg            	1	2	1	nma_lock10.jpg       	nonmovArt	4	lock      	24	lock10      	249	not_alive	0	still	0	artefact	0	n	0	0    	 	0.0	0	131.189247	131.28918249999998	0.0999354999994466
109202	100	132	stimuli\movNat\hotspring\mn_hotspring08.jpg      	1	2	1	mn_hotspring08.jpg   	movNat   	3	hotspring 	21	hotspring08 	217	not_alive	0	moves	1	natural 	1	n	0	0    	 	0.0	0	131.33923729999998	131.4391825	0.0999452000005476
109352	100	133	stimuli\animals2\tiger\animal_tiger06.jpg        	1	2	1	animal_tiger06.jpg   	animals2 	1	tiger     	33	tiger06     	335	alive    	1	moves	1	natural 	1	n	0	0    	 	0.0	0	131.4892581	131.589167	0.0999088999997184
109502	100	134	stimuli\animals\cat\animal_cat10.jpg             	1	2	1	animal_cat10.jpg     	animals  	0	cat       	6	cat10       	69	alive    	1	moves	1	natural 	1	n	0	0    	 	0.0	0	131.6392661	131.7391784	0.0999123000001418
109652	100	135	stimuli\plant\flower\plant_flower04.jpg          	1	2	1	plant_flower04.jpg   	plant    	6	flower    	16	flower04    	163	alive    	1	still	0	natural 	1	n	0	0    	 	0.0	0	131.78925320000002	131.8891585	0.0999053000005005
109802	100	136	stimuli\movArt\train\ma_train06.jpg              	1	2	1	ma_train06.jpg       	movArt   	2	train     	34	train06     	345	not_alive	0	moves	1	artefact	0	n	0	0    	 	0.0	0	131.939252	132.0392038	0.0999517999998715
109952	100	137	stimuli\plant\flower\plant_flower10.jpg          	1	2	1	plant_flower10.jpg   	plant    	6	flower    	16	flower10    	169	alive    	1	still	0	natural 	1	n	0	0    	 	0.0	0	132.0892595	132.1892366	0.0999771000006148
110102	100	138	stimuli\movNat\hotspring\mn_hotspring02.jpg      	1	2	1	mn_hotspring02.jpg   	movNat   	3	hotspring 	21	hotspring02 	211	not_alive	0	moves	1	natural 	1	n	0	0    	 	0.0	0	132.2392807	132.3391761	0.0998954000006051
110252	100	139	stimuli\nonmovNat\shell\nmn_shell10.jpg          	1	2	1	nmn_shell10.jpg      	nonmovNat	5	shell     	32	shell10     	329	not_alive	0	still	0	natural 	1	n	0	0    	 	0.0	0	132.38924640000002	132.4891743	0.0999278999997841
110402	100	140	stimuli\nonmovNat\crystal\nmn_crystal02.jpg      	1	2	1	nmn_crystal02.jpg    	nonmovNat	5	crystal   	10	crystal02   	101	not_alive	0	still	0	natural 	1	n	0	0    	 	0.0	0	132.5392463	132.63918	0.0999337000002924
110552	100	141	stimuli\nonmovNat\crystal\nmn_crystal07.jpg      	1	2	1	nmn_crystal07.jpg    	nonmovNat	5	crystal   	10	crystal07   	106	not_alive	0	still	0	natural 	1	n	0	0    	 	0.0	0	132.6892412	132.7891609	0.0999197000001004
110702	100	142	stimuli\animals\cat\animal_cat08.jpg             	1	2	1	animal_cat08.jpg     	animals  	0	cat       	6	cat08       	67	alive    	1	moves	1	natural 	1	n	0	0    	 	0.0	0	132.83925109999998	132.9391689	0.0999178000001848
110852	100	143	stimuli\movNat\river\mn_river07.jpg              	1	2	1	mn_river07.jpg       	movNat   	3	river     	29	river07     	296	not_alive	0	moves	1	natural 	1	n	0	0    	 	0.0	0	132.9892281	133.08916729999999	0.0999391999994259
111002	100	144	stimuli\nonmovNat\rock\nmn_rock04.jpg            	1	2	1	nmn_rock04.jpg       	nonmovNat	5	rock      	30	rock04      	303	not_alive	0	still	0	natural 	1	n	0	0    	 	0.0	0	133.13924939999998	133.2391657	0.0999162999996769
111152	100	145	stimuli\plant\flower\plant_flower03.jpg          	1	2	1	plant_flower03.jpg   	plant    	6	flower    	16	flower03    	162	alive    	1	still	0	natural 	1	n	0	0    	 	0.0	0	133.28922649999998	133.38914640000002	0.0999198999998043
111302	100	146	stimuli\animals\dolphin\animal_dolphin10.jpg     	1	2	1	animal_dolphin10.jpg 	animals  	0	dolphin   	12	dolphin10   	129	alive    	1	moves	1	natural 	1	n	0	0    	 	0.0	0	133.4392453	133.5391724	0.09992710000005901
111452	100	147	stimuli\movArt\helicopter\ma_helicopter04.jpg    	1	2	1	ma_helicopter04.jpg  	movArt   	2	helicopter	19	helicopter04	193	not_alive	0	moves	1	artefact	0	n	0	0    	 	0.0	0	133.58923470000002	133.6891604	0.0999257000003126
111602	100	148	stimuli\nonmovArt\headphones\nma_headphones10.jpg	1	2	1	nma_headphones10.jpg 	nonmovArt	4	headphones	18	headphones10	189	not_alive	0	still	0	artefact	0	n	0	0    	 	0.0	0	133.7392584	133.83918329999997	0.099924899999678
111752	100	149	stimuli\plant2\clover\plant_clover08.jpg         	1	2	1	plant_clover08.jpg   	plant2   	7	clover    	9	clover08    	97	alive    	1	still	0	natural 	1	n	1	0    	 	0.0	0	133.8892381	133.9892576	0.100019500000599
111902	100	150	stimuli\animals2\bee\animal_bee04.jpg            	1	2	1	animal_bee04.jpg     	animals2 	1	bee       	0	bee04       	3	alive    	1	moves	1	natural 	1	n	0	0    	 	0.0	0	134.03926859999999	134.1391659	0.0998973000005207
112052	100	151	stimuli\animals2\whale\animal_whale08.jpg        	1	2	1	animal_whale08.jpg   	animals2 	1	whale     	39	whale08     	397	alive    	1	moves	1	natural 	1	n	0	1    	f	0.30554890000075796	1	134.1892381	134.28915780000003	0.0999197000001004
112202	100	152	stimuli\movArt\boat\ma_boat10.jpg                	1	2	1	ma_boat10.jpg        	movArt   	2	boat      	2	boat10      	29	not_alive	0	moves	1	artefact	0	n	0	0    	 	0.0	0	134.3392541	134.4391618	0.0999076999996759
112352	100	153	stimuli\nonmovNat\cliff\nmn_cliff05.jpg          	1	2	1	nmn_cliff05.jpg      	nonmovNat	5	cliff     	7	cliff05     	74	not_alive	0	still	0	natural 	1	n	0	0    	 	0.0	0	134.4892313	134.5891578	0.0999265000000377
112502	100	154	stimuli\animals\eagle\animal_eagle01.jpg         	1	2	1	animal_eagle01.jpg   	animals  	0	eagle     	13	eagle01     	130	alive    	1	moves	1	natural 	1	n	0	0    	 	0.0	0	134.6392355	134.7391542	0.0999186999997618
112652	100	155	stimuli\animals2\tiger\animal_tiger06.jpg        	1	2	1	animal_tiger06.jpg   	animals2 	1	tiger     	33	tiger06     	335	alive    	1	moves	1	natural 	1	n	0	0    	 	0.0	0	134.78922409999998	134.8891505	0.0999264000001858
112802	100	156	stimuli\movArt\boat\ma_boat04.jpg                	1	2	1	ma_boat04.jpg        	movArt   	2	boat      	2	boat04      	23	not_alive	0	moves	1	artefact	0	n	0	0    	 	0.0	0	134.9392541	135.0391634	0.0999093000000357
112952	100	157	stimuli\nonmovArt\clothespeg\nma_clothespeg03.jpg	1	2	1	nma_clothespeg03.jpg 	nonmovArt	4	clothespeg	8	clothespeg03	82	not_alive	0	still	0	artefact	0	n	0	0    	 	0.0	0	135.0892247	135.1891328	0.0999080999999932
113102	100	158	stimuli\animals2\bee\animal_bee01.jpg            	1	2	1	animal_bee01.jpg     	animals2 	1	bee       	0	bee01       	0	alive    	1	moves	1	natural 	1	n	0	0    	 	0.0	0	135.23923359999998	135.3391446	0.0999109999993379
113252	100	159	stimuli\animals2\whale\animal_whale09.jpg        	1	2	1	animal_whale09.jpg   	animals2 	1	whale     	39	whale09     	398	alive    	1	moves	1	natural 	1	n	0	0    	 	0.0	0	135.3892209	135.4891447	0.09992380000039698
117686	100	160	stimuli\nonmovArt\headphones\nma_headphones06.jpg	1	3	1	nma_headphones06.jpg 	nonmovArt	4	headphones	18	headphones06	185	not_alive	0	still	0	artefact	0	n	0	0    	 	0.0	0	139.8227091	139.92250159999998	0.0997925000001487
117836	100	161	stimuli\nonmovNat\sand\nmn_sand10.jpg            	1	3	1	nmn_sand10.jpg       	nonmovNat	5	sand      	31	sand10      	319	not_alive	0	still	0	natural 	1	n	0	0    	 	0.0	0	139.972547	140.0724513	0.0999042999992525
117986	100	162	stimuli\movArt\train\ma_train01.jpg              	1	3	1	ma_train01.jpg       	movArt   	2	train     	34	train01     	340	not_alive	0	moves	1	artefact	0	n	0	0    	 	0.0	0	140.1225426	140.2224511	0.0999084999994011
118136	100	163	stimuli\plant2\fern\plant_fern08.jpg             	1	3	1	plant_fern08.jpg     	plant2   	7	fern      	14	fern08      	147	alive    	1	still	0	natural 	1	n	0	0    	 	0.0	0	140.2725289	140.37243700000002	0.0999080999999932
118286	100	164	stimuli\nonmovNat\shell\nmn_shell08.jpg          	1	3	1	nmn_shell08.jpg      	nonmovNat	5	shell     	32	shell08     	327	not_alive	0	still	0	natural 	1	n	0	0    	 	0.0	0	140.4225526	140.522449999999	0.0998973999994632
118436	100	165	stimuli\movNat\waves\mn_waves10.jpg              	1	3	1	mn_waves10.jpg       	movNat   	3	waves     	38	waves10     	389	not_alive	0	moves	1	natural 	1	n	0	0    	 	0.0	0	140.5725302	140.6724428	0.0999125999996977
118586	100	166	stimuli\animals2\tiger\animal_tiger07.jpg        	1	3	1	animal_tiger07.jpg   	animals2 	1	tiger     	33	tiger07     	336	alive    	1	moves	1	natural 	1	n	0	0    	 	0.0	0	140.7225158	140.82244369999998	0.0999278999997841
118736	100	167	stimuli\plant2\lemontree\plant_lemontree10.jpg   	1	3	1	plant_lemontree10.jpg	plant2   	7	lemontree 	22	lemontree10 	229	alive    	1	still	0	natural 	1	n	0	0    	 	0.0	0	140.8725233	140.9724361	0.0999128000003111
118886	100	168	stimuli\movNat\river\mn_river01.jpg              	1	3	1	mn_river01.jpg       	movNat   	3	river     	29	river01     	290	not_alive	0	moves	1	natural 	1	n	0	0    	 	0.0	0	141.0225179	141.122439199999	0.0999212999995506
119036	100	169	stimuli\plant\cactus\plant_cactus03.jpg          	1	3	1	plant_cactus03.jpg   	plant    	6	cactus    	4	cactus03    	42	alive    	1	still	0	natural 	1	n	0	0    	 	0.0	0	141.17252280000002	141.27243909999999	0.0999163000005864
119186	100	170	stimuli\animals\dolphin\animal_dolphin01.jpg     	1	3	1	animal_dolphin01.jpg 	animals  	0	dolphin   	12	dolphin01   	120	alive    	1	moves	1	natural 	1	n	1	0    	 	0.0	0	141.3225319	141.4224382	0.0999062999999296
119336	100	171	stimuli\nonmovNat\sand\nmn_sand10.jpg            	1	3	1	nmn_sand10.jpg       	nonmovNat	5	sand      	31	sand10      	319	not_alive	0	still	0	natural 	1	n	0	0    	 	0.0	0	141.4725375	141.57245480000003	0.0999173000000155
119486	100	172	stimuli\movArt\bus\ma_bus01.jpg                  	1	3	1	ma_bus01.jpg         	movArt   	2	bus       	3	bus01       	30	not_alive	0	moves	1	artefact	0	n	0	1    	f	0.39209019999998396	1	141.6226418	141.7224606	0.099818800000321
119636	100	173	stimuli\nonmovArt\mug\nma_mug07.jpg              	1	3	1	nma_mug07.jpg        	nonmovArt	4	mug       	26	mug07       	266	not_alive	0	still	0	artefact	0	n	0	0    	 	0.0	0	141.772518	141.87243130000002	0.0999133000004803
119786	100	174	stimuli\plant\vine\plant_vine03.jpg              	1	3	1	plant_vine03.jpg     	plant    	6	vine      	36	vine03      	362	alive    	1	still	0	natural 	1	n	0	0    	 	0.0	0	141.92252309999998	142.0224301	0.0999069999998028
119936	100	175	stimuli\animals2\lemur\animal_lemur05.jpg        	1	3	1	animal_lemur05.jpg   	animals2 	1	lemur     	23	lemur05     	234	alive    	1	moves	1	natural 	1	n	1	0    	 	0.0	0	142.07253469999998	142.172442	0.0999073000002681
120086	100	176	stimuli\plant\tree\plant_tree05.jpg              	1	3	1	plant_tree05.jpg     	plant    	6	tree      	35	tree05      	354	alive    	1	still	0	natural 	1	n	0	0    	 	0.0	0	142.2225069	142.3224376	0.0999307000001863
120236	100	177	stimuli\movArt\bus\ma_bus06.jpg                  	1	3	1	ma_bus06.jpg         	movArt   	2	bus       	3	bus06       	35	not_alive	0	moves	1	artefact	0	n	0	1    	f	0.391954400000031	1	142.37250790000002	142.47242980000001	0.0999219000004814
120386	100	178	stimuli\plant2\clover\plant_clover06.jpg         	1	3	1	plant_clover06.jpg   	plant2   	7	clover    	9	clover06    	95	alive    	1	still	0	natural 	1	n	0	0    	 	0.0	0	142.5225133	142.6224603	0.0999469999997018
120536	100	179	stimuli\plant2\moss\plant_moss06.jpg             	1	3	1	plant_moss06.jpg     	plant2   	7	moss      	25	moss06      	255	alive    	1	still	0	natural 	1	n	0	0    	 	0.0	0	142.67252130000003	142.7724534	0.0999320999999326
120685	100	180	stimuli\nonmovArt\clothespeg\nma_clothespeg03.jpg	1	3	1	nma_clothespeg03.jpg 	nonmovArt	4	clothespeg	8	clothespeg03	82	not_alive	0	still	0	artefact	0	n	0	0    	 	0.0	0	142.82165039999998	142.921643	0.0999925999994957
120835	100	181	stimuli\plant\vine\plant_vine09.jpg              	1	3	1	plant_vine09.jpg     	plant    	6	vine      	36	vine09      	368	alive    	1	still	0	natural 	1	n	0	0    	 	0.0	0	142.97164880000003	143.0716475	0.0999986999995599
120985	100	182	stimuli\animals2\pigeon\animal_pigeon04.jpg      	1	3	1	animal_pigeon04.jpg  	animals2 	1	pigeon    	28	pigeon04    	283	alive    	1	moves	1	natural 	1	n	0	0    	 	0.0	0	143.12165359999997	143.2216445	0.0999909000001935
121135	100	183	stimuli\plant\grass\plant_grass06.jpg            	1	3	1	plant_grass06.jpg    	plant    	6	grass     	17	grass06     	175	alive    	1	still	0	natural 	1	n	0	0    	 	0.0	0	143.27165680000002	143.37165919999998	0.10000240000044901
121285	100	184	stimuli\animals\dog\animal_dog07.jpg             	1	3	1	animal_dog07.jpg     	animals  	0	dog       	11	dog07       	116	alive    	1	moves	1	natural 	1	n	0	0    	 	0.0	0	143.4216825	143.52163769999999	0.0999551999993855
121435	100	185	stimuli\animals2\bee\animal_bee02.jpg            	1	3	1	animal_bee02.jpg     	animals2 	1	bee       	0	bee02       	1	alive    	1	moves	1	natural 	1	n	0	0    	 	0.0	0	143.5716449	143.6716394	0.0999944999994113
121585	100	186	stimuli\nonmovNat\crystal\nmn_crystal10.jpg      	1	3	1	nmn_crystal10.jpg    	nonmovNat	5	crystal   	10	crystal10   	109	not_alive	0	still	0	natural 	1	n	0	0    	 	0.0	0	143.7216443	143.82163549999999	0.0999911999997493
121735	100	187	stimuli\nonmovNat\cliff\nmn_cliff09.jpg          	1	3	1	nmn_cliff09.jpg      	nonmovNat	5	cliff     	7	cliff09     	78	not_alive	0	still	0	natural 	1	n	0	0    	 	0.0	0	143.8716416	143.97164119999997	0.0999996000000464
121885	100	188	stimuli\plant2\fern\plant_fern01.jpg             	1	3	1	plant_fern01.jpg     	plant2   	7	fern      	14	fern01      	140	alive    	1	still	0	natural 	1	n	0	0    	 	0.0	0	144.021648	144.1216336	0.0999855999998544
122035	100	189	stimuli\nonmovArt\lock\nma_lock09.jpg            	1	3	1	nma_lock09.jpg       	nonmovArt	4	lock      	24	lock09      	248	not_alive	0	still	0	artefact	0	n	0	0    	 	0.0	0	144.1716388	144.2716373	0.0999985000007654
122185	100	190	stimuli\plant\cactus\plant_cactus04.jpg          	1	3	1	plant_cactus04.jpg   	plant    	6	cactus    	4	cactus04    	43	alive    	1	still	0	natural 	1	n	0	0    	 	0.0	0	144.3216386	144.4216271	0.0999884999991991
122335	100	191	stimuli\plant\tree\plant_tree06.jpg              	1	3	1	plant_tree06.jpg     	plant    	6	tree      	35	tree06      	355	alive    	1	still	0	natural 	1	n	0	0    	 	0.0	0	144.47164130000002	144.57163500000001	0.0999937000005957
122485	100	192	stimuli\plant\tree\plant_tree02.jpg              	1	3	1	plant_tree02.jpg     	plant    	6	tree      	35	tree02      	351	alive    	1	still	0	natural 	1	n	0	0    	 	0.0	0	144.62164180000002	144.7216272	0.09998539999924098
122635	100	193	stimuli\movArt\car\ma_car01.jpg                  	1	3	1	ma_car01.jpg         	movArt   	2	car       	5	car01       	50	not_alive	0	moves	1	artefact	0	n	0	0    	 	0.0	0	144.7716405	144.8716283	0.0999878000002354
122785	100	194	stimuli\movArt\helicopter\ma_helicopter04.jpg    	1	3	1	ma_helicopter04.jpg  	movArt   	2	helicopter	19	helicopter04	193	not_alive	0	moves	1	artefact	0	n	0	0    	 	0.0	0	144.9216345	145.0216267	0.0999922000000879
122935	100	195	stimuli\animals\dolphin\animal_dolphin02.jpg     	1	3	1	animal_dolphin02.jpg 	animals  	0	dolphin   	12	dolphin02   	121	alive    	1	moves	1	natural 	1	n	0	0    	 	0.0	0	145.07163469999998	145.1716711	0.10003640000013499
123085	100	196	stimuli\animals\horse\animal_horse10.jpg         	1	3	1	animal_horse10.jpg   	animals  	0	horse     	20	horse10     	209	alive    	1	moves	1	natural 	1	n	0	0    	 	0.0	0	145.22164650000002	145.3216279	0.0999813999997059
123235	100	197	stimuli\plant2\moss\plant_moss09.jpg             	1	3	1	plant_moss09.jpg     	plant2   	7	moss      	25	moss09      	258	alive    	1	still	0	natural 	1	n	0	0    	 	0.0	0	145.371634	145.471627	0.09999299999981301
123385	100	198	stimuli\movNat\hotspring\mn_hotspring02.jpg      	1	3	1	mn_hotspring02.jpg   	movNat   	3	hotspring 	21	hotspring02 	211	not_alive	0	moves	1	natural 	1	n	0	0    	 	0.0	0	145.52162980000003	145.6216177	0.0999879000000874
123535	100	199	stimuli\movNat\waves\mn_waves10.jpg              	1	3	1	mn_waves10.jpg       	movNat   	3	waves     	38	waves10     	389	not_alive	0	moves	1	natural 	1	n	0	0    	 	0.0	0	145.67163290000002	145.77161830000003	0.0999854000001505
123685	100	200	stimuli\nonmovArt\mug\nma_mug08.jpg              	1	3	1	nma_mug08.jpg        	nonmovArt	4	mug       	26	mug08       	267	not_alive	0	still	0	artefact	0	n	0	0    	 	0.0	0	145.82162580000002	145.921625	0.0999991999997291
123835	100	201	stimuli\movNat\river\mn_river03.jpg              	1	3	1	mn_river03.jpg       	movNat   	3	river     	29	river03     	292	not_alive	0	moves	1	natural 	1	n	0	0    	 	0.0	0	145.9716295	146.0716169	0.0999873999999181
123985	100	202	stimuli\animals\eagle\animal_eagle02.jpg         	1	3	1	animal_eagle02.jpg   	animals  	0	eagle     	13	eagle02     	131	alive    	1	moves	1	natural 	1	n	0	0    	 	0.0	0	146.12162880000002	146.2216212	0.0999924000007013
124135	100	203	stimuli\animals2\lemur\animal_lemur10.jpg        	1	3	1	animal_lemur10.jpg   	animals2 	1	lemur     	23	lemur10     	239	alive    	1	moves	1	natural 	1	n	0	0    	 	0.0	0	146.2716285	146.371617199999	0.0999886999998125
124285	100	204	stimuli\nonmovArt\bench\nma_bench02.jpg          	1	3	1	nma_bench02.jpg      	nonmovArt	4	bench     	1	bench02     	11	not_alive	0	still	0	artefact	0	n	1	0    	 	0.0	0	146.42162969999998	146.5216189	0.0999891999999818
124435	100	205	stimuli\plant\vine\plant_vine01.jpg              	1	3	1	plant_vine01.jpg     	plant    	6	vine      	36	vine01      	360	alive    	1	still	0	natural 	1	n	0	0    	 	0.0	0	146.5716229	146.6716167	0.0999937999995381
124585	100	206	stimuli\nonmovNat\cliff\nmn_cliff04.jpg          	1	3	1	nmn_cliff04.jpg      	nonmovNat	5	cliff     	7	cliff04     	73	not_alive	0	still	0	natural 	1	n	0	1    	f	0.391988800000036	1	146.7216181	146.82161000000002	0.0999918999996225
124735	100	207	stimuli\animals\eagle\animal_eagle01.jpg         	1	3	1	animal_eagle01.jpg   	animals  	0	eagle     	13	eagle01     	130	alive    	1	moves	1	natural 	1	n	0	0    	 	0.0	0	146.8716179	146.97163030000002	0.10001239999928697
124885	100	208	stimuli\animals\dog\animal_dog08.jpg             	1	3	1	animal_dog08.jpg     	animals  	0	dog       	11	dog08       	117	alive    	1	moves	1	natural 	1	n	0	0    	 	0.0	0	147.02161850000002	147.12161229999901	0.0999937999995381
125035	100	209	stimuli\animals\horse\animal_horse04.jpg         	1	3	1	animal_horse04.jpg   	animals  	0	horse     	20	horse04     	203	alive    	1	moves	1	natural 	1	n	0	0    	 	0.0	0	147.1716175	147.2716075	0.0999899999997069
125185	100	210	stimuli\plant2\lemontree\plant_lemontree04.jpg   	1	3	1	plant_lemontree04.jpg	plant2   	7	lemontree 	22	lemontree04 	223	alive    	1	still	0	natural 	1	n	0	0    	 	0.0	0	147.32161230000003	147.421606	0.0999936999996862
125335	100	211	stimuli\plant2\fern\plant_fern07.jpg             	1	3	1	plant_fern07.jpg     	plant2   	7	fern      	14	fern07      	146	alive    	1	still	0	natural 	1	n	0	0    	 	0.0	0	147.4716159	147.571603	0.0999871000003622
125485	100	212	stimuli\movNat\waterfall\mn_waterfall04.jpg      	1	3	1	mn_waterfall04.jpg   	movNat   	3	waterfall 	37	waterfall04 	373	not_alive	0	moves	1	natural 	1	n	0	0    	 	0.0	0	147.6216186	147.7216082	0.0999895999993896
125635	100	213	stimuli\plant\cactus\plant_cactus02.jpg          	1	3	1	plant_cactus02.jpg   	plant    	6	cactus    	4	cactus02    	41	alive    	1	still	0	natural 	1	n	0	0    	 	0.0	0	147.7716159	147.8716095	0.0999935999998342
125785	100	214	stimuli\movArt\car\ma_car04.jpg                  	1	3	1	ma_car04.jpg         	movArt   	2	car       	5	car04       	53	not_alive	0	moves	1	artefact	0	n	0	0    	 	0.0	0	147.9216147	148.02159980000002	0.0999851000005946
125935	100	215	stimuli\animals\dog\animal_dog04.jpg             	1	3	1	animal_dog04.jpg     	animals  	0	dog       	11	dog04       	113	alive    	1	moves	1	natural 	1	n	0	0    	 	0.0	0	148.0716188	148.1716014	0.0999826000006578
126085	100	216	stimuli\plant2\palmtree\plant_palmtree06.jpg     	1	3	1	plant_palmtree06.jpg 	plant2   	7	palmtree  	27	palmtree06  	275	alive    	1	still	0	natural 	1	n	0	0    	 	0.0	0	148.22161200000002	148.32160290000002	0.099990899999284
126235	100	217	stimuli\movArt\car\ma_car06.jpg                  	1	3	1	ma_car06.jpg         	movArt   	2	car       	5	car06       	55	not_alive	0	moves	1	artefact	0	n	0	0    	 	0.0	0	148.3716106	148.4716011	0.0999904999998762
126385	100	218	stimuli\animals2\pigeon\animal_pigeon10.jpg      	1	3	1	animal_pigeon10.jpg  	animals2 	1	pigeon    	28	pigeon10    	289	alive    	1	moves	1	natural 	1	n	0	0    	 	0.0	0	148.5216051	148.62160880000002	0.100003700000343
126535	100	219	stimuli\plant2\palmtree\plant_palmtree04.jpg     	1	3	1	plant_palmtree04.jpg 	plant2   	7	palmtree  	27	palmtree04  	273	alive    	1	still	0	natural 	1	n	0	0    	 	0.0	0	148.6715904	148.7716168	0.100026399999479
126685	100	220	stimuli\plant\grass\plant_grass05.jpg            	1	3	1	plant_grass05.jpg    	plant    	6	grass     	17	grass05     	174	alive    	1	still	0	natural 	1	n	0	0    	 	0.0	0	148.8216077	148.9215983	0.0999906000006376
126835	100	221	stimuli\animals2\pigeon\animal_pigeon03.jpg      	1	3	1	animal_pigeon03.jpg  	animals2 	1	pigeon    	28	pigeon03    	282	alive    	1	moves	1	natural 	1	n	0	0    	 	0.0	0	148.971598	149.07159019999997	0.0999922000000879
126985	100	222	stimuli\animals2\whale\animal_whale03.jpg        	1	3	1	animal_whale03.jpg   	animals2 	1	whale     	39	whale03     	392	alive    	1	moves	1	natural 	1	n	0	0    	 	0.0	0	149.1216028	149.22159580000002	0.09999299999981301
127135	100	223	stimuli\movArt\helicopter\ma_helicopter09.jpg    	1	3	1	ma_helicopter09.jpg  	movArt   	2	helicopter	19	helicopter09	198	not_alive	0	moves	1	artefact	0	n	0	0    	 	0.0	0	149.271603	149.37159540000002	0.0999923999997918
127285	100	224	stimuli\nonmovArt\mug\nma_mug05.jpg              	1	3	1	nma_mug05.jpg        	nonmovArt	4	mug       	26	mug05       	264	not_alive	0	still	0	artefact	0	n	0	0    	 	0.0	0	149.4216014	149.521594	0.0999925999994957
127435	100	225	stimuli\plant\grass\plant_grass06.jpg            	1	3	1	plant_grass06.jpg    	plant    	6	grass     	17	grass06     	175	alive    	1	still	0	natural 	1	n	0	0    	 	0.0	0	149.5716004	149.6715951	0.0999947000000247
127585	100	226	stimuli\plant2\clover\plant_clover02.jpg         	1	3	1	plant_clover02.jpg   	plant2   	7	clover    	9	clover02    	91	alive    	1	still	0	natural 	1	n	0	0    	 	0.0	0	149.7215986	149.82159769999998	0.0999990999998772
127735	100	227	stimuli\movNat\fire\mn_fire01.jpg                	1	3	1	mn_fire01.jpg        	movNat   	3	fire      	15	fire01      	150	not_alive	0	moves	1	natural 	1	n	0	0    	 	0.0	0	149.87159690000001	149.9715888	0.09999190000053199
127885	100	228	stimuli\nonmovNat\rock\nmn_rock03.jpg            	1	3	1	nmn_rock03.jpg       	nonmovNat	5	rock      	30	rock03      	302	not_alive	0	still	0	natural 	1	n	0	0    	 	0.0	0	150.021596	150.1215874	0.0999914000003627
128035	100	229	stimuli\movNat\waterfall\mn_waterfall03.jpg      	1	3	1	mn_waterfall03.jpg   	movNat   	3	waterfall 	37	waterfall03 	372	not_alive	0	moves	1	natural 	1	n	0	0    	 	0.0	0	150.1715935	150.27158740000002	0.0999938999993901
128185	100	230	stimuli\movArt\bus\ma_bus07.jpg                  	1	3	1	ma_bus07.jpg         	movArt   	2	bus       	3	bus07       	36	not_alive	0	moves	1	artefact	0	n	0	0    	 	0.0	0	150.3215879	150.4215874	0.0999995000001945
128335	100	231	stimuli\plant2\palmtree\plant_palmtree10.jpg     	1	3	1	plant_palmtree10.jpg 	plant2   	7	palmtree  	27	palmtree10  	279	alive    	1	still	0	natural 	1	n	0	0    	 	0.0	0	150.4716131	150.57158930000003	0.0999762000001283
128485	100	232	stimuli\animals2\lemur\animal_lemur10.jpg        	1	3	1	animal_lemur10.jpg   	animals2 	1	lemur     	23	lemur10     	239	alive    	1	moves	1	natural 	1	n	0	0    	 	0.0	0	150.621591	150.7215839	0.099992899999961
128635	100	233	stimuli\nonmovNat\shell\nmn_shell06.jpg          	1	3	1	nmn_shell06.jpg      	nonmovNat	5	shell     	32	shell06     	325	not_alive	0	still	0	natural 	1	n	0	0    	 	0.0	0	150.7715899	150.8715823	0.0999924000007013
128785	100	234	stimuli\nonmovNat\sand\nmn_sand09.jpg            	1	3	1	nmn_sand09.jpg       	nonmovNat	5	sand      	31	sand09      	318	not_alive	0	still	0	natural 	1	n	0	0    	 	0.0	0	150.92158730000003	151.0215798	0.0999924999996437
128935	100	235	stimuli\nonmovNat\rock\nmn_rock02.jpg            	1	3	1	nmn_rock02.jpg       	nonmovNat	5	rock      	30	rock02      	301	not_alive	0	still	0	natural 	1	n	0	0    	 	0.0	0	151.0715866	151.17157269999998	0.0999861000000237
129085	100	236	stimuli\nonmovArt\clothespeg\nma_clothespeg03.jpg	1	3	1	nma_clothespeg03.jpg 	nonmovArt	4	clothespeg	8	clothespeg03	82	not_alive	0	still	0	artefact	0	n	0	0    	 	0.0	0	151.221579	151.321572	0.09999299999981301
129235	100	237	stimuli\movNat\waves\mn_waves04.jpg              	1	3	1	mn_waves04.jpg       	movNat   	3	waves     	38	waves04     	383	not_alive	0	moves	1	natural 	1	n	0	0    	 	0.0	0	151.3715823	151.4715765	0.0999941999998554
129385	100	238	stimuli\nonmovArt\lock\nma_lock10.jpg            	1	3	1	nma_lock10.jpg       	nonmovArt	4	lock      	24	lock10      	249	not_alive	0	still	0	artefact	0	n	0	0    	 	0.0	0	151.5215824	151.621574	0.0999916000000666
129535	100	239	stimuli\nonmovArt\bench\nma_bench06.jpg          	1	3	1	nma_bench06.jpg      	nonmovArt	4	bench     	1	bench06     	15	not_alive	0	still	0	artefact	0	n	0	0    	 	0.0	0	151.6715832	151.77157590000002	0.0999927000002571
132218	100	240	stimuli\movNat\river\mn_river05.jpg              	1	4	1	mn_river05.jpg       	movNat   	3	river     	29	river05     	294	not_alive	0	moves	1	natural 	1	n	0	0    	 	0.0	0	154.3549083	154.4548958	0.09998749999977
132368	100	241	stimuli\nonmovNat\sand\nmn_sand06.jpg            	1	4	1	nmn_sand06.jpg       	nonmovNat	5	sand      	31	sand06      	315	not_alive	0	still	0	natural 	1	n	0	0    	 	0.0	0	154.504901	154.6048937	0.0999926999993476
132519	100	242	stimuli\plant2\lemontree\plant_lemontree08.jpg   	1	4	1	plant_lemontree08.jpg	plant2   	7	lemontree 	22	lemontree08 	227	alive    	1	still	0	natural 	1	n	0	0    	 	0.0	0	154.655747	154.75566369999999	0.0999166999999943
132669	100	243	stimuli\nonmovArt\mug\nma_mug10.jpg              	1	4	1	nma_mug10.jpg        	nonmovArt	4	mug       	26	mug10       	269	not_alive	0	still	0	artefact	0	n	0	0    	 	0.0	0	154.80591330000001	154.9056554	0.09974210000018499
132819	100	244	stimuli\nonmovArt\bench\nma_bench07.jpg          	1	4	1	nma_bench07.jpg      	nonmovArt	4	bench     	1	bench07     	16	not_alive	0	still	0	artefact	0	n	0	0    	 	0.0	0	154.955742	155.05565369999997	0.0999117000001206
132969	100	245	stimuli\movArt\helicopter\ma_helicopter10.jpg    	1	4	1	ma_helicopter10.jpg  	movArt   	2	helicopter	19	helicopter10	199	not_alive	0	moves	1	artefact	0	n	0	0    	 	0.0	0	155.10573630000002	155.20566009999902	0.0999237999994875
133119	100	246	stimuli\movArt\helicopter\ma_helicopter03.jpg    	1	4	1	ma_helicopter03.jpg  	movArt   	2	helicopter	19	helicopter03	192	not_alive	0	moves	1	artefact	0	n	0	0    	 	0.0	0	155.2557361	155.3556706	0.0999345000000175
133269	100	247	stimuli\movNat\waves\mn_waves08.jpg              	1	4	1	mn_waves08.jpg       	movNat   	3	waves     	38	waves08     	387	not_alive	0	moves	1	natural 	1	n	0	0    	 	0.0	0	155.4057301	155.5056311	0.0999009999995905
133419	100	248	stimuli\animals\eagle\animal_eagle06.jpg         	1	4	1	animal_eagle06.jpg   	animals  	0	eagle     	13	eagle06     	135	alive    	1	moves	1	natural 	1	n	0	0    	 	0.0	0	155.55573180000002	155.6556574	0.0999255999995512
133569	100	249	stimuli\movNat\waterfall\mn_waterfall07.jpg      	1	4	1	mn_waterfall07.jpg   	movNat   	3	waterfall 	37	waterfall07 	376	not_alive	0	moves	1	natural 	1	n	0	0    	 	0.0	0	155.7057248	155.8056493	0.0999245000002702
133719	100	250	stimuli\plant\flower\plant_flower05.jpg          	1	4	1	plant_flower05.jpg   	plant    	6	flower    	16	flower05    	164	alive    	1	still	0	natural 	1	n	0	0    	 	0.0	0	155.8557257	155.9556465	0.0999207999993814
133869	100	251	stimuli\nonmovArt\clothespeg\nma_clothespeg06.jpg	1	4	1	nma_clothespeg06.jpg 	nonmovArt	4	clothespeg	8	clothespeg06	85	not_alive	0	still	0	artefact	0	n	0	0    	 	0.0	0	156.00574939999998	156.1056482	0.099898800000119
134019	100	252	stimuli\nonmovArt\lock\nma_lock01.jpg            	1	4	1	nma_lock01.jpg       	nonmovArt	4	lock      	24	lock01      	240	not_alive	0	still	0	artefact	0	n	0	0    	 	0.0	0	156.15572790000002	156.2556485	0.0999205999996775
134169	100	253	stimuli\nonmovNat\cliff\nmn_cliff09.jpg          	1	4	1	nmn_cliff09.jpg      	nonmovNat	5	cliff     	7	cliff09     	78	not_alive	0	still	0	natural 	1	n	0	0    	 	0.0	0	156.305723	156.40565680000003	0.0999338000001444
134319	100	254	stimuli\plant\tree\plant_tree07.jpg              	1	4	1	plant_tree07.jpg     	plant    	6	tree      	35	tree07      	356	alive    	1	still	0	natural 	1	n	0	0    	 	0.0	0	156.4558331	156.55563769999998	0.0998046000004251
134469	100	255	stimuli\nonmovArt\clothespeg\nma_clothespeg08.jpg	1	4	1	nma_clothespeg08.jpg 	nonmovArt	4	clothespeg	8	clothespeg08	87	not_alive	0	still	0	artefact	0	n	0	0    	 	0.0	0	156.6057331	156.70561990000002	0.0998867999996946
134619	100	256	stimuli\plant2\fern\plant_fern09.jpg             	1	4	1	plant_fern09.jpg     	plant2   	7	fern      	14	fern09      	148	alive    	1	still	0	natural 	1	n	0	0    	 	0.0	0	156.7557298	156.85564130000003	0.0999114999995072
134769	100	257	stimuli\movNat\fire\mn_fire04.jpg                	1	4	1	mn_fire04.jpg        	movNat   	3	fire      	15	fire04      	153	not_alive	0	moves	1	natural 	1	n	0	0    	 	0.0	0	156.90570680000002	157.0056362	0.0999293999993824
134919	100	258	stimuli\plant2\fern\plant_fern04.jpg             	1	4	1	plant_fern04.jpg     	plant2   	7	fern      	14	fern04      	143	alive    	1	still	0	natural 	1	n	0	0    	 	0.0	0	157.0557325	157.155639699999	0.0999071999995067
135069	100	259	stimuli\animals\eagle\animal_eagle06.jpg         	1	4	1	animal_eagle06.jpg   	animals  	0	eagle     	13	eagle06     	135	alive    	1	moves	1	natural 	1	n	0	0    	 	0.0	0	157.2057286	157.30557209999998	0.0998435000001336
135219	100	260	stimuli\animals\dog\animal_dog02.jpg             	1	4	1	animal_dog02.jpg     	animals  	0	dog       	11	dog02       	111	alive    	1	moves	1	natural 	1	n	0	0    	 	0.0	0	157.35571159999998	157.455644	0.0999323999994885
135369	100	261	stimuli\animals2\pigeon\animal_pigeon06.jpg      	1	4	1	animal_pigeon06.jpg  	animals2 	1	pigeon    	28	pigeon06    	285	alive    	1	moves	1	natural 	1	n	0	0    	 	0.0	0	157.50576709999999	157.60563359999998	0.099866500000644
135519	100	262	stimuli\movNat\hotspring\mn_hotspring05.jpg      	1	4	1	mn_hotspring05.jpg   	movNat   	3	hotspring 	21	hotspring05 	214	not_alive	0	moves	1	natural 	1	n	0	0    	 	0.0	0	157.65572419999998	157.7556295	0.099905299999591
135669	100	263	stimuli\plant2\clover\plant_clover09.jpg         	1	4	1	plant_clover09.jpg   	plant2   	7	clover    	9	clover09    	98	alive    	1	still	0	natural 	1	n	0	0    	 	0.0	0	157.8057177	157.90575990000002	0.10004219999973402
135819	100	264	stimuli\plant\grass\plant_grass08.jpg            	1	4	1	plant_grass08.jpg    	plant    	6	grass     	17	grass08     	177	alive    	1	still	0	natural 	1	n	0	0    	 	0.0	0	157.95572140000002	158.0556774	0.0999560000000201
135969	100	265	stimuli\animals2\lemur\animal_lemur04.jpg        	1	4	1	animal_lemur04.jpg   	animals2 	1	lemur     	23	lemur04     	233	alive    	1	moves	1	natural 	1	n	0	0    	 	0.0	0	158.1057947	158.2057469	0.0999522000001889
136119	100	266	stimuli\plant\cactus\plant_cactus10.jpg          	1	4	1	plant_cactus10.jpg   	plant    	6	cactus    	4	cactus10    	49	alive    	1	still	0	natural 	1	n	0	0    	 	0.0	0	158.255783099999	158.3556467	0.0998636000003898
136269	100	267	stimuli\plant\tree\plant_tree07.jpg              	1	4	1	plant_tree07.jpg     	plant    	6	tree      	35	tree07      	356	alive    	1	still	0	natural 	1	n	0	0    	 	0.0	0	158.40570480000002	158.5056244	0.0999196000002484
136419	100	268	stimuli\animals2\whale\animal_whale02.jpg        	1	4	1	animal_whale02.jpg   	animals2 	1	whale     	39	whale02     	391	alive    	1	moves	1	natural 	1	n	0	0    	 	0.0	0	158.5557225	158.6556193	0.09989679999944198
136569	100	269	stimuli\movNat\waterfall\mn_waterfall06.jpg      	1	4	1	mn_waterfall06.jpg   	movNat   	3	waterfall 	37	waterfall06 	375	not_alive	0	moves	1	natural 	1	n	0	0    	 	0.0	0	158.7057141	158.8056306	0.0999165000002904
136719	100	270	stimuli\plant2\moss\plant_moss05.jpg             	1	4	1	plant_moss05.jpg     	plant2   	7	moss      	25	moss05      	254	alive    	1	still	0	natural 	1	n	0	0    	 	0.0	0	158.8557063	158.955623	0.0999166999999943
136869	100	271	stimuli\movArt\boat\ma_boat03.jpg                	1	4	1	ma_boat03.jpg        	movArt   	2	boat      	2	boat03      	22	not_alive	0	moves	1	artefact	0	n	0	0    	 	0.0	0	159.0057191	159.10563430000002	0.099915200000396
137019	100	272	stimuli\nonmovNat\shell\nmn_shell03.jpg          	1	4	1	nmn_shell03.jpg      	nonmovNat	5	shell     	32	shell03     	322	not_alive	0	still	0	natural 	1	n	0	0    	 	0.0	0	159.1556671	159.25561969999998	0.0999526000005062
137169	100	273	stimuli\nonmovArt\bench\nma_bench03.jpg          	1	4	1	nma_bench03.jpg      	nonmovArt	4	bench     	1	bench03     	12	not_alive	0	still	0	artefact	0	n	0	0    	 	0.0	0	159.3057139	159.40563559999998	0.09992169999986801
137319	100	274	stimuli\nonmovNat\shell\nmn_shell07.jpg          	1	4	1	nmn_shell07.jpg      	nonmovNat	5	shell     	32	shell07     	326	not_alive	0	still	0	natural 	1	n	0	0    	 	0.0	0	159.4556904	159.55563030000002	0.0999399000002085
137469	100	275	stimuli\movNat\fire\mn_fire09.jpg                	1	4	1	mn_fire09.jpg        	movNat   	3	fire      	15	fire09      	158	not_alive	0	moves	1	natural 	1	n	0	0    	 	0.0	0	159.605707	159.705625	0.0999179999998887
137619	100	276	stimuli\animals\cat\animal_cat02.jpg             	1	4	1	animal_cat02.jpg     	animals  	0	cat       	6	cat02       	61	alive    	1	moves	1	natural 	1	n	0	0    	 	0.0	0	159.7557075	159.8556382	0.0999307000001863
137769	100	277	stimuli\nonmovArt\headphones\nma_headphones01.jpg	1	4	1	nma_headphones01.jpg 	nonmovArt	4	headphones	18	headphones01	180	not_alive	0	still	0	artefact	0	n	0	0    	 	0.0	0	159.90585969999998	160.0057184	0.0998586999994586
137919	100	278	stimuli\movNat\hotspring\mn_hotspring10.jpg      	1	4	1	mn_hotspring10.jpg   	movNat   	3	hotspring 	21	hotspring10 	219	not_alive	0	moves	1	natural 	1	n	1	0    	 	0.0	0	160.0557435	160.1555986	0.0998551000002407
138069	100	279	stimuli\plant\flower\plant_flower02.jpg          	1	4	1	plant_flower02.jpg   	plant    	6	flower    	16	flower02    	161	alive    	1	still	0	natural 	1	n	0	0    	 	0.0	0	160.2057033	160.3056337	0.0999303999997209
138219	100	280	stimuli\animals2\tiger\animal_tiger08.jpg        	1	4	1	animal_tiger08.jpg   	animals2 	1	tiger     	33	tiger08     	337	alive    	1	moves	1	natural 	1	n	0	1    	f	0.3919508999997561	1	160.35571069999997	160.4556029	0.0998921999998856
138369	100	281	stimuli\nonmovNat\crystal\nmn_crystal03.jpg      	1	4	1	nmn_crystal03.jpg    	nonmovNat	5	crystal   	10	crystal03   	102	not_alive	0	still	0	natural 	1	n	0	0    	 	0.0	0	160.50569330000002	160.6056137	0.0999203999999736
138519	100	282	stimuli\nonmovNat\sand\nmn_sand09.jpg            	1	4	1	nmn_sand09.jpg       	nonmovNat	5	sand      	31	sand09      	318	not_alive	0	still	0	natural 	1	n	0	0    	 	0.0	0	160.655686	160.7556061	0.0999200999995082
138669	100	283	stimuli\nonmovNat\rock\nmn_rock07.jpg            	1	4	1	nmn_rock07.jpg       	nonmovNat	5	rock      	30	rock07      	306	not_alive	0	still	0	natural 	1	n	0	0    	 	0.0	0	160.8057131	160.9056079	0.0998948000005839
138819	100	284	stimuli\animals2\whale\animal_whale06.jpg        	1	4	1	animal_whale06.jpg   	animals2 	1	whale     	39	whale06     	395	alive    	1	moves	1	natural 	1	n	0	0    	 	0.0	0	160.9556888	161.0556003	0.0999115000004167
138969	100	285	stimuli\animals\horse\animal_horse04.jpg         	1	4	1	animal_horse04.jpg   	animals  	0	horse     	20	horse04     	203	alive    	1	moves	1	natural 	1	n	0	0    	 	0.0	0	161.1056862	161.2056008	0.0999146000003747
139119	100	286	stimuli\plant2\palmtree\plant_palmtree10.jpg     	1	4	1	plant_palmtree10.jpg 	plant2   	7	palmtree  	27	palmtree10  	279	alive    	1	still	0	natural 	1	n	1	0    	 	0.0	0	161.25569	161.3556056	0.0999155999998038
139269	100	287	stimuli\movNat\waves\mn_waves06.jpg              	1	4	1	mn_waves06.jpg       	movNat   	3	waves     	38	waves06     	385	not_alive	0	moves	1	natural 	1	n	0	0    	 	0.0	0	161.4057024	161.505598	0.0998955999993995
139419	100	288	stimuli\nonmovNat\cliff\nmn_cliff07.jpg          	1	4	1	nmn_cliff07.jpg      	nonmovNat	5	cliff     	7	cliff07     	76	not_alive	0	still	0	natural 	1	n	0	1    	f	0.4000884999995829	1	161.5556825	161.6555892	0.0999066999993374
139569	100	289	stimuli\plant2\moss\plant_moss05.jpg             	1	4	1	plant_moss05.jpg     	plant2   	7	moss      	25	moss05      	254	alive    	1	still	0	natural 	1	n	0	0    	 	0.0	0	161.7058781	161.8056684	0.0997903000006772
139719	100	290	stimuli\animals2\bee\animal_bee04.jpg            	1	4	1	animal_bee04.jpg     	animals2 	1	bee       	0	bee04       	3	alive    	1	moves	1	natural 	1	n	0	0    	 	0.0	0	161.8557007	161.9556065	0.0999057999997603
139869	100	291	stimuli\animals2\whale\animal_whale10.jpg        	1	4	1	animal_whale10.jpg   	animals2 	1	whale     	39	whale10     	399	alive    	1	moves	1	natural 	1	n	0	0    	 	0.0	0	162.005678	162.10558730000002	0.0999093000000357
140019	100	292	stimuli\animals\horse\animal_horse09.jpg         	1	4	1	animal_horse09.jpg   	animals  	0	horse     	20	horse09     	208	alive    	1	moves	1	natural 	1	n	0	0    	 	0.0	0	162.1556766	162.2555907	0.099914099999296
140169	100	293	stimuli\nonmovNat\rock\nmn_rock05.jpg            	1	4	1	nmn_rock05.jpg       	nonmovNat	5	rock      	30	rock05      	304	not_alive	0	still	0	natural 	1	n	0	0    	 	0.0	0	162.3056947	162.4055862	0.0998915000000124
140319	100	294	stimuli\movArt\train\ma_train02.jpg              	1	4	1	ma_train02.jpg       	movArt   	2	train     	34	train02     	341	not_alive	0	moves	1	artefact	0	n	0	0    	 	0.0	0	162.45566929999902	162.5556062	0.0999369000001024
140469	100	295	stimuli\movNat\fire\mn_fire01.jpg                	1	4	1	mn_fire01.jpg        	movNat   	3	fire      	15	fire01      	150	not_alive	0	moves	1	natural 	1	n	0	0    	 	0.0	0	162.6056818	162.70559450000002	0.0999127000004591
140619	100	296	stimuli\nonmovArt\headphones\nma_headphones05.jpg	1	4	1	nma_headphones05.jpg 	nonmovArt	4	headphones	18	headphones05	184	not_alive	0	still	0	artefact	0	n	0	0    	 	0.0	0	162.7556717	162.8555922	0.0999204999998255
140769	100	297	stimuli\plant\cactus\plant_cactus08.jpg          	1	4	1	plant_cactus08.jpg   	plant    	6	cactus    	4	cactus08    	47	alive    	1	still	0	natural 	1	n	0	0    	 	0.0	0	162.9056822	163.0056081	0.0999259000000165
140919	100	298	stimuli\nonmovNat\rock\nmn_rock04.jpg            	1	4	1	nmn_rock04.jpg       	nonmovNat	5	rock      	30	rock04      	303	not_alive	0	still	0	natural 	1	n	0	0    	 	0.0	0	163.0556874	163.15560159999902	0.0999141999991479
141069	100	299	stimuli\plant2\palmtree\plant_palmtree07.jpg     	1	4	1	plant_palmtree07.jpg 	plant2   	7	palmtree  	27	palmtree07  	276	alive    	1	still	0	natural 	1	n	0	0    	 	0.0	0	163.20568169999999	163.3055915	0.0999097999992955
141219	100	300	stimuli\plant\vine\plant_vine05.jpg              	1	4	1	plant_vine05.jpg     	plant    	6	vine      	36	vine05      	364	alive    	1	still	0	natural 	1	n	1	0    	 	0.0	0	163.3556712	163.45555119999997	0.0998799999997572
141369	100	301	stimuli\movArt\car\ma_car07.jpg                  	1	4	1	ma_car07.jpg         	movArt   	2	car       	5	car07       	56	not_alive	0	moves	1	artefact	0	n	0	0    	 	0.0	0	163.5056801	163.605575699999	0.0998955999993995
141519	100	302	stimuli\plant2\palmtree\plant_palmtree10.jpg     	1	4	1	plant_palmtree10.jpg 	plant2   	7	palmtree  	27	palmtree10  	279	alive    	1	still	0	natural 	1	n	0	1    	f	0.4011050999997679	1	163.655673	163.7555831	0.0999100999997608
141669	100	303	stimuli\movNat\river\mn_river06.jpg              	1	4	1	mn_river06.jpg       	movNat   	3	river     	29	river06     	295	not_alive	0	moves	1	natural 	1	n	0	0    	 	0.0	0	163.8056786	163.90559	0.0999114000005647
141819	100	304	stimuli\movNat\waterfall\mn_waterfall06.jpg      	1	4	1	mn_waterfall06.jpg   	movNat   	3	waterfall 	37	waterfall06 	375	not_alive	0	moves	1	natural 	1	n	0	0    	 	0.0	0	163.95565200000001	164.05558259999998	0.0999306000003343
141969	100	305	stimuli\movArt\boat\ma_boat09.jpg                	1	4	1	ma_boat09.jpg        	movArt   	2	boat      	2	boat09      	28	not_alive	0	moves	1	artefact	0	n	0	0    	 	0.0	0	164.10565680000002	164.20557780000001	0.0999209999999948
142119	100	306	stimuli\animals\dolphin\animal_dolphin05.jpg     	1	4	1	animal_dolphin05.jpg 	animals  	0	dolphin   	12	dolphin05   	124	alive    	1	moves	1	natural 	1	n	0	0    	 	0.0	0	164.2556497	164.35557319999998	0.0999234999999316
142269	100	307	stimuli\animals2\tiger\animal_tiger08.jpg        	1	4	1	animal_tiger08.jpg   	animals2 	1	tiger     	33	tiger08     	337	alive    	1	moves	1	natural 	1	n	0	0    	 	0.0	0	164.40564469999998	164.5055659	0.0999211999996987
142419	100	308	stimuli\plant2\lemontree\plant_lemontree08.jpg   	1	4	1	plant_lemontree08.jpg	plant2   	7	lemontree 	22	lemontree08 	227	alive    	1	still	0	natural 	1	n	0	0    	 	0.0	0	164.555654	164.6555739	0.0999198999998043
142569	100	309	stimuli\nonmovArt\clothespeg\nma_clothespeg02.jpg	1	4	1	nma_clothespeg02.jpg 	nonmovArt	4	clothespeg	8	clothespeg02	81	not_alive	0	still	0	artefact	0	n	0	0    	 	0.0	0	164.7056699	164.8055851	0.099915200000396
142719	100	310	stimuli\nonmovArt\headphones\nma_headphones10.jpg	1	4	1	nma_headphones10.jpg 	nonmovArt	4	headphones	18	headphones10	189	not_alive	0	still	0	artefact	0	n	0	0    	 	0.0	0	164.85566519999998	164.955569799999	0.0999045999997179
142869	100	311	stimuli\nonmovNat\cliff\nmn_cliff05.jpg          	1	4	1	nmn_cliff05.jpg      	nonmovNat	5	cliff     	7	cliff05     	74	not_alive	0	still	0	natural 	1	n	0	0    	 	0.0	0	165.00564780000002	165.1055719	0.0999240999999528
143019	100	312	stimuli\nonmovNat\crystal\nmn_crystal09.jpg      	1	4	1	nmn_crystal09.jpg    	nonmovNat	5	crystal   	10	crystal09   	108	not_alive	0	still	0	natural 	1	n	0	0    	 	0.0	0	165.15563899999998	165.2555828	0.0999437999998917
143169	100	313	stimuli\plant2\clover\plant_clover04.jpg         	1	4	1	plant_clover04.jpg   	plant2   	7	clover    	9	clover04    	93	alive    	1	still	0	natural 	1	n	0	0    	 	0.0	0	165.3057561	165.4055655	0.0998094000005949
143319	100	314	stimuli\animals2\pigeon\animal_pigeon06.jpg      	1	4	1	animal_pigeon06.jpg  	animals2 	1	pigeon    	28	pigeon06    	285	alive    	1	moves	1	natural 	1	n	0	0    	 	0.0	0	165.45566589999999	165.5555679	0.0999019999999291
143469	100	315	stimuli\plant2\lemontree\plant_lemontree01.jpg   	1	4	1	plant_lemontree01.jpg	plant2   	7	lemontree 	22	lemontree01 	220	alive    	1	still	0	natural 	1	n	0	0    	 	0.0	0	165.6056499	165.70557069999998	0.0999208000002909
143619	100	316	stimuli\plant\flower\plant_flower02.jpg          	1	4	1	plant_flower02.jpg   	plant    	6	flower    	16	flower02    	161	alive    	1	still	0	natural 	1	n	0	0    	 	0.0	0	165.755641799999	165.85556619999997	0.0999244000004182
143769	100	317	stimuli\animals\cat\animal_cat10.jpg             	1	4	1	animal_cat10.jpg     	animals  	0	cat       	6	cat10       	69	alive    	1	moves	1	natural 	1	n	0	0    	 	0.0	0	165.90564980000002	166.005569	0.0999191999999311
143919	100	318	stimuli\movArt\boat\ma_boat08.jpg                	1	4	1	ma_boat08.jpg        	movArt   	2	boat      	2	boat08      	27	not_alive	0	moves	1	artefact	0	n	0	0    	 	0.0	0	166.0556575	166.1555421	0.0998846000002231
144069	100	319	stimuli\plant\tree\plant_tree10.jpg              	1	4	1	plant_tree10.jpg     	plant    	6	tree      	35	tree10      	359	alive    	1	still	0	natural 	1	n	0	0    	 	0.0	0	166.2056494	166.3055928	0.0999434000004839
146752	100	320	stimuli\animals\dog\animal_dog06.jpg             	1	5	1	animal_dog06.jpg     	animals  	0	dog       	11	dog06       	115	alive    	1	moves	1	natural 	1	n	0	0    	 	0.0	0	168.888956199999	168.98886130000002	0.0999051000007966
146902	100	321	stimuli\plant2\clover\plant_clover04.jpg         	1	5	1	plant_clover04.jpg   	plant2   	7	clover    	9	clover04    	93	alive    	1	still	0	natural 	1	n	0	0    	 	0.0	0	169.0389499	169.13888400000002	0.0999340999997002
147052	100	322	stimuli\movNat\river\mn_river08.jpg              	1	5	1	mn_river08.jpg       	movNat   	3	river     	29	river08     	297	not_alive	0	moves	1	natural 	1	n	0	0    	 	0.0	0	169.1889404	169.2888684	0.099927999999636
147202	100	323	stimuli\movArt\bus\ma_bus07.jpg                  	1	5	1	ma_bus07.jpg         	movArt   	2	bus       	3	bus07       	36	not_alive	0	moves	1	artefact	0	n	0	0    	 	0.0	0	169.33894740000002	169.4388419	0.0998945000001185
147352	100	324	stimuli\animals2\pigeon\animal_pigeon08.jpg      	1	5	1	animal_pigeon08.jpg  	animals2 	1	pigeon    	28	pigeon08    	287	alive    	1	moves	1	natural 	1	n	0	0    	 	0.0	0	169.4889398	169.58885959999998	0.0999197999999523
147502	100	325	stimuli\animals2\bee\animal_bee03.jpg            	1	5	1	animal_bee03.jpg     	animals2 	1	bee       	0	bee03       	2	alive    	1	moves	1	natural 	1	n	0	0    	 	0.0	0	169.6390386	169.7388676	0.0998289999997723
147652	100	326	stimuli\animals2\lemur\animal_lemur06.jpg        	1	5	1	animal_lemur06.jpg   	animals2 	1	lemur     	23	lemur06     	235	alive    	1	moves	1	natural 	1	n	0	0    	 	0.0	0	169.7889242	169.88886369999997	0.0999394999998912
147802	100	327	stimuli\animals2\tiger\animal_tiger03.jpg        	1	5	1	animal_tiger03.jpg   	animals2 	1	tiger     	33	tiger03     	332	alive    	1	moves	1	natural 	1	n	0	0    	 	0.0	0	169.9389483	170.0388595	0.0999111999999513
147952	100	328	stimuli\movArt\bus\ma_bus10.jpg                  	1	5	1	ma_bus10.jpg         	movArt   	2	bus       	3	bus10       	39	not_alive	0	moves	1	artefact	0	n	0	0    	 	0.0	0	170.0889379	170.18885749999998	0.0999196000002484
148102	100	329	stimuli\nonmovArt\mug\nma_mug02.jpg              	1	5	1	nma_mug02.jpg        	nonmovArt	4	mug       	26	mug02       	261	not_alive	0	still	0	artefact	0	n	0	0    	 	0.0	0	170.23895480000002	170.33886919999998	0.0999143999997613
148252	100	330	stimuli\animals\dolphin\animal_dolphin06.jpg     	1	5	1	animal_dolphin06.jpg 	animals  	0	dolphin   	12	dolphin06   	125	alive    	1	moves	1	natural 	1	n	0	0    	 	0.0	0	170.38889890000002	170.48885049999998	0.0999516000001676
148402	100	331	stimuli\plant\cactus\plant_cactus10.jpg          	1	5	1	plant_cactus10.jpg   	plant    	6	cactus    	4	cactus10    	49	alive    	1	still	0	natural 	1	n	0	0    	 	0.0	0	170.5389495	170.63885390000002	0.09990440000001401
148552	100	332	stimuli\nonmovArt\bench\nma_bench02.jpg          	1	5	1	nma_bench02.jpg      	nonmovArt	4	bench     	1	bench02     	11	not_alive	0	still	0	artefact	0	n	0	0    	 	0.0	0	170.6889351	170.7888482	0.0999130999998669
148702	100	333	stimuli\animals2\lemur\animal_lemur07.jpg        	1	5	1	animal_lemur07.jpg   	animals2 	1	lemur     	23	lemur07     	236	alive    	1	moves	1	natural 	1	n	1	0    	 	0.0	0	170.8389417	170.938854	0.0999123000001418
148852	100	334	stimuli\movArt\car\ma_car08.jpg                  	1	5	1	ma_car08.jpg         	movArt   	2	car       	5	car08       	57	not_alive	0	moves	1	artefact	0	n	0	0    	 	0.0	0	170.98894280000002	171.0888426	0.0998998000004576
149002	100	335	stimuli\movArt\train\ma_train03.jpg              	1	5	1	ma_train03.jpg       	movArt   	2	train     	34	train03     	342	not_alive	0	moves	1	artefact	0	n	0	1    	f	0.39199540000026895	1	171.1389361	171.2388551	0.0999190000002272
149152	100	336	stimuli\nonmovNat\sand\nmn_sand04.jpg            	1	5	1	nmn_sand04.jpg       	nonmovNat	5	sand      	31	sand04      	313	not_alive	0	still	0	natural 	1	n	0	0    	 	0.0	0	171.2889994	171.38884319999997	0.099843800000599
149302	100	337	stimuli\animals\dog\animal_dog10.jpg             	1	5	1	animal_dog10.jpg     	animals  	0	dog       	11	dog10       	119	alive    	1	moves	1	natural 	1	n	0	0    	 	0.0	0	171.43902869999997	171.538849	0.0998202999999193
149452	100	338	stimuli\nonmovArt\lock\nma_lock05.jpg            	1	5	1	nma_lock05.jpg       	nonmovArt	4	lock      	24	lock05      	244	not_alive	0	still	0	artefact	0	n	0	0    	 	0.0	0	171.58893369999998	171.68884309999999	0.0999093999998876
149602	100	339	stimuli\animals\dolphin\animal_dolphin02.jpg     	1	5	1	animal_dolphin02.jpg 	animals  	0	dolphin   	12	dolphin02   	121	alive    	1	moves	1	natural 	1	n	0	0    	 	0.0	0	171.7389603	171.8388414	0.0998810999999477
149752	100	340	stimuli\nonmovNat\crystal\nmn_crystal09.jpg      	1	5	1	nmn_crystal09.jpg    	nonmovNat	5	crystal   	10	crystal09   	108	not_alive	0	still	0	natural 	1	n	0	0    	 	0.0	0	171.8889216	171.9888448	0.0999232000003758
149902	100	341	stimuli\plant\vine\plant_vine04.jpg              	1	5	1	plant_vine04.jpg     	plant    	6	vine      	36	vine04      	363	alive    	1	still	0	natural 	1	n	0	0    	 	0.0	0	172.0389293	172.13884480000002	0.0999154999999518
150052	100	342	stimuli\movNat\waves\mn_waves02.jpg              	1	5	1	mn_waves02.jpg       	movNat   	3	waves     	38	waves02     	381	not_alive	0	moves	1	natural 	1	n	0	0    	 	0.0	0	172.1889201	172.28884159999998	0.0999214999992546
150202	100	343	stimuli\plant\grass\plant_grass09.jpg            	1	5	1	plant_grass09.jpg    	plant    	6	grass     	17	grass09     	178	alive    	1	still	0	natural 	1	n	0	0    	 	0.0	0	172.3389005	172.43884119999998	0.0999406999999337
150352	100	344	stimuli\movArt\car\ma_car05.jpg                  	1	5	1	ma_car05.jpg         	movArt   	2	car       	5	car05       	54	not_alive	0	moves	1	artefact	0	n	0	0    	 	0.0	0	172.4889111	172.588821	0.0999099000000569
150502	100	345	stimuli\animals2\bee\animal_bee05.jpg            	1	5	1	animal_bee05.jpg     	animals2 	1	bee       	0	bee05       	4	alive    	1	moves	1	natural 	1	n	0	0    	 	0.0	0	172.6389373	172.7388511	0.0999137999997401
150652	100	346	stimuli\movArt\bus\ma_bus04.jpg                  	1	5	1	ma_bus04.jpg         	movArt   	2	bus       	3	bus04       	33	not_alive	0	moves	1	artefact	0	n	0	0    	 	0.0	0	172.78890149999998	172.8888437	0.099942199999532
150802	100	347	stimuli\animals\cat\animal_cat10.jpg             	1	5	1	animal_cat10.jpg     	animals  	0	cat       	6	cat10       	69	alive    	1	moves	1	natural 	1	n	0	0    	 	0.0	0	172.9389289	173.0388534	0.0999245000002702
150952	100	348	stimuli\plant2\fern\plant_fern04.jpg             	1	5	1	plant_fern04.jpg     	plant2   	7	fern      	14	fern04      	143	alive    	1	still	0	natural 	1	n	0	0    	 	0.0	0	173.0889664	173.18882380000002	0.0998574000004737
151102	100	349	stimuli\nonmovArt\lock\nma_lock08.jpg            	1	5	1	nma_lock08.jpg       	nonmovArt	4	lock      	24	lock08      	247	not_alive	0	still	0	artefact	0	n	0	0    	 	0.0	0	173.2389935	173.33884530000003	0.0998517999996693
151252	100	350	stimuli\movArt\helicopter\ma_helicopter01.jpg    	1	5	1	ma_helicopter01.jpg  	movArt   	2	helicopter	19	helicopter01	190	not_alive	0	moves	1	artefact	0	n	0	0    	 	0.0	0	173.3889102	173.48881980000002	0.0999095999995916
151402	100	351	stimuli\plant\vine\plant_vine02.jpg              	1	5	1	plant_vine02.jpg     	plant    	6	vine      	36	vine02      	361	alive    	1	still	0	natural 	1	n	0	0    	 	0.0	0	173.5389267	173.6388363	0.0999095999995916
151552	100	352	stimuli\animals\eagle\animal_eagle02.jpg         	1	5	1	animal_eagle02.jpg   	animals  	0	eagle     	13	eagle02     	131	alive    	1	moves	1	natural 	1	n	0	0    	 	0.0	0	173.6889055	173.788825	0.09991949999948699
151702	100	353	stimuli\movNat\hotspring\mn_hotspring10.jpg      	1	5	1	mn_hotspring10.jpg   	movNat   	3	hotspring 	21	hotspring10 	219	not_alive	0	moves	1	natural 	1	n	0	0    	 	0.0	0	173.838902	173.93883689999998	0.0999349000003348
151852	100	354	stimuli\nonmovNat\shell\nmn_shell02.jpg          	1	5	1	nmn_shell02.jpg      	nonmovNat	5	shell     	32	shell02     	321	not_alive	0	still	0	natural 	1	n	0	0    	 	0.0	0	173.9888948	174.0888355	0.0999406999999337
152002	100	355	stimuli\movArt\train\ma_train05.jpg              	1	5	1	ma_train05.jpg       	movArt   	2	train     	34	train05     	344	not_alive	0	moves	1	artefact	0	n	0	0    	 	0.0	0	174.1389356	174.23883469999998	0.0998990999996749
152152	100	356	stimuli\plant2\moss\plant_moss06.jpg             	1	5	1	plant_moss06.jpg     	plant2   	7	moss      	25	moss06      	255	alive    	1	still	0	natural 	1	n	0	0    	 	0.0	0	174.2889017	174.3888102	0.0999085000003106
152302	100	357	stimuli\animals\horse\animal_horse09.jpg         	1	5	1	animal_horse09.jpg   	animals  	0	horse     	20	horse09     	208	alive    	1	moves	1	natural 	1	n	0	0    	 	0.0	0	174.4389181	174.53882819999998	0.0999101000006703
152452	100	358	stimuli\nonmovArt\mug\nma_mug04.jpg              	1	5	1	nma_mug04.jpg        	nonmovArt	4	mug       	26	mug04       	263	not_alive	0	still	0	artefact	0	n	0	0    	 	0.0	0	174.58891780000002	174.688845	0.0999271999999109
152602	100	359	stimuli\plant\grass\plant_grass08.jpg            	1	5	1	plant_grass08.jpg    	plant    	6	grass     	17	grass08     	177	alive    	1	still	0	natural 	1	n	0	0    	 	0.0	0	174.73890369999998	174.83883889999998	0.0999351999998907
152752	100	360	stimuli\plant2\lemontree\plant_lemontree02.jpg   	1	5	1	plant_lemontree02.jpg	plant2   	7	lemontree 	22	lemontree02 	221	alive    	1	still	0	natural 	1	n	0	0    	 	0.0	0	174.8888494	174.98890459999998	0.10005519999958802
152902	100	361	stimuli\nonmovNat\shell\nmn_shell05.jpg          	1	5	1	nmn_shell05.jpg      	nonmovNat	5	shell     	32	shell05     	324	not_alive	0	still	0	natural 	1	n	0	0    	 	0.0	0	175.0389515	175.13881669999998	0.0998651999998401
153052	100	362	stimuli\animals\horse\animal_horse02.jpg         	1	5	1	animal_horse02.jpg   	animals  	0	horse     	20	horse02     	201	alive    	1	moves	1	natural 	1	n	0	0    	 	0.0	0	175.1888812	175.28880890000002	0.0999277000000802
153202	100	363	stimuli\animals2\pigeon\animal_pigeon02.jpg      	1	5	1	animal_pigeon02.jpg  	animals2 	1	pigeon    	28	pigeon02    	281	alive    	1	moves	1	natural 	1	n	0	0    	 	0.0	0	175.3389007	175.43881389999999	0.0999132000006284
153352	100	364	stimuli\nonmovArt\lock\nma_lock06.jpg            	1	5	1	nma_lock06.jpg       	nonmovArt	4	lock      	24	lock06      	245	not_alive	0	still	0	artefact	0	n	0	0    	 	0.0	0	175.488894399999	175.5887966	0.0999022000005425
153502	100	365	stimuli\plant\vine\plant_vine06.jpg              	1	5	1	plant_vine06.jpg     	plant    	6	vine      	36	vine06      	365	alive    	1	still	0	natural 	1	n	0	0    	 	0.0	0	175.63891230000002	175.7388608	0.0999485000002096
153652	100	366	stimuli\movNat\waterfall\mn_waterfall10.jpg      	1	5	1	mn_waterfall10.jpg   	movNat   	3	waterfall 	37	waterfall10 	379	not_alive	0	moves	1	natural 	1	n	0	0    	 	0.0	0	175.7888946	175.88881750000002	0.0999228999999104
153802	100	367	stimuli\nonmovArt\bench\nma_bench10.jpg          	1	5	1	nma_bench10.jpg      	nonmovArt	4	bench     	1	bench10     	19	not_alive	0	still	0	artefact	0	n	0	0    	 	0.0	0	175.9389024	176.0388157	0.0999132999995708
153952	100	368	stimuli\nonmovArt\headphones\nma_headphones05.jpg	1	5	1	nma_headphones05.jpg 	nonmovArt	4	headphones	18	headphones05	184	not_alive	0	still	0	artefact	0	n	0	0    	 	0.0	0	176.08873880000002	176.1888094	0.100070599999526
154102	100	369	stimuli\animals\dolphin\animal_dolphin04.jpg     	1	5	1	animal_dolphin04.jpg 	animals  	0	dolphin   	12	dolphin04   	123	alive    	1	moves	1	natural 	1	n	0	0    	 	0.0	0	176.2389043	176.33882219999998	0.0999179000000367
154252	100	370	stimuli\movArt\bus\ma_bus05.jpg                  	1	5	1	ma_bus05.jpg         	movArt   	2	bus       	3	bus05       	34	not_alive	0	moves	1	artefact	0	n	0	0    	 	0.0	0	176.3889331	176.48884850000002	0.0999154000000999
154402	100	371	stimuli\animals2\whale\animal_whale01.jpg        	1	5	1	animal_whale01.jpg   	animals2 	1	whale     	39	whale01     	390	alive    	1	moves	1	natural 	1	n	0	0    	 	0.0	0	176.53893459999998	176.6388608	0.0999261999995724
154552	100	372	stimuli\plant2\moss\plant_moss06.jpg             	1	5	1	plant_moss06.jpg     	plant2   	7	moss      	25	moss06      	255	alive    	1	still	0	natural 	1	n	0	0    	 	0.0	0	176.68899199999998	176.78882099999998	0.0998289999997723
154702	100	373	stimuli\nonmovArt\mug\nma_mug06.jpg              	1	5	1	nma_mug06.jpg        	nonmovArt	4	mug       	26	mug06       	265	not_alive	0	still	0	artefact	0	n	1	0    	 	0.0	0	176.8389965	176.9388132	0.0998167000007015
154852	100	374	stimuli\animals\dog\animal_dog09.jpg             	1	5	1	animal_dog09.jpg     	animals  	0	dog       	11	dog09       	118	alive    	1	moves	1	natural 	1	n	0	0    	 	0.0	0	176.9889122	177.0888499	0.0999377000007371
155002	100	375	stimuli\animals\dolphin\animal_dolphin06.jpg     	1	5	1	animal_dolphin06.jpg 	animals  	0	dolphin   	12	dolphin06   	125	alive    	1	moves	1	natural 	1	n	0	1    	f	0.391891100000066	1	177.1389027	177.2388108	0.0999080999999932
155152	100	376	stimuli\animals2\bee\animal_bee05.jpg            	1	5	1	animal_bee05.jpg     	animals2 	1	bee       	0	bee05       	4	alive    	1	moves	1	natural 	1	n	0	0    	 	0.0	0	177.28890019999997	177.3888311	0.0999308999998902
155302	100	377	stimuli\animals\horse\animal_horse05.jpg         	1	5	1	animal_horse05.jpg   	animals  	0	horse     	20	horse05     	204	alive    	1	moves	1	natural 	1	n	0	0    	 	0.0	0	177.4389195	177.5388391	0.0999195999993389
155452	100	378	stimuli\nonmovArt\lock\nma_lock07.jpg            	1	5	1	nma_lock07.jpg       	nonmovArt	4	lock      	24	lock07      	246	not_alive	0	still	0	artefact	0	n	1	0    	 	0.0	0	177.588887899999	177.68883799999998	0.0999501000005693
155602	100	379	stimuli\animals2\bee\animal_bee05.jpg            	1	5	1	animal_bee05.jpg     	animals2 	1	bee       	0	bee05       	4	alive    	1	moves	1	natural 	1	n	0	0    	 	0.0	0	177.7389148	177.8388091	0.0998942999995051
155752	100	380	stimuli\nonmovNat\sand\nmn_sand04.jpg            	1	5	1	nmn_sand04.jpg       	nonmovNat	5	sand      	31	sand04      	313	not_alive	0	still	0	natural 	1	n	0	1    	f	0.39201160000084206	1	177.8889229	177.9888184	0.0998955000004571
155902	100	381	stimuli\movNat\waves\mn_waves03.jpg              	1	5	1	mn_waves03.jpg       	movNat   	3	waves     	38	waves03     	382	not_alive	0	moves	1	natural 	1	n	1	0    	 	0.0	0	178.03891140000002	178.13879419999998	0.0998828000001594
156052	100	382	stimuli\animals\eagle\animal_eagle10.jpg         	1	5	1	animal_eagle10.jpg   	animals  	0	eagle     	13	eagle10     	139	alive    	1	moves	1	natural 	1	n	0	0    	 	0.0	0	178.1888821	178.28880700000002	0.099924899999678
156202	100	383	stimuli\plant\cactus\plant_cactus10.jpg          	1	5	1	plant_cactus10.jpg   	plant    	6	cactus    	4	cactus10    	49	alive    	1	still	0	natural 	1	n	0	1    	f	0.405936199999815	1	178.3389111	178.4387638	0.0998527000001558
156352	100	384	stimuli\nonmovNat\cliff\nmn_cliff07.jpg          	1	5	1	nmn_cliff07.jpg      	nonmovNat	5	cliff     	7	cliff07     	76	not_alive	0	still	0	natural 	1	n	0	0    	 	0.0	0	178.488975	178.588962	0.0999869999996008
156502	100	385	stimuli\animals\dog\animal_dog05.jpg             	1	5	1	animal_dog05.jpg     	animals  	0	dog       	11	dog05       	114	alive    	1	moves	1	natural 	1	n	0	0    	 	0.0	0	178.63889939999999	178.7388283	0.0999289000001226
156652	100	386	stimuli\nonmovArt\headphones\nma_headphones02.jpg	1	5	1	nma_headphones02.jpg 	nonmovArt	4	headphones	18	headphones02	181	not_alive	0	still	0	artefact	0	n	0	0    	 	0.0	0	178.7888836	178.888801	0.0999173999998674
156802	100	387	stimuli\movNat\river\mn_river03.jpg              	1	5	1	mn_river03.jpg       	movNat   	3	river     	29	river03     	292	not_alive	0	moves	1	natural 	1	n	0	0    	 	0.0	0	178.9388888	179.0388026	0.0999137999997401
156952	100	388	stimuli\plant\vine\plant_vine09.jpg              	1	5	1	plant_vine09.jpg     	plant    	6	vine      	36	vine09      	368	alive    	1	still	0	natural 	1	n	0	0    	 	0.0	0	179.0889014	179.1887994	0.0998980000003939
157102	100	389	stimuli\nonmovNat\sand\nmn_sand06.jpg            	1	5	1	nmn_sand06.jpg       	nonmovNat	5	sand      	31	sand06      	315	not_alive	0	still	0	natural 	1	n	0	0    	 	0.0	0	179.23888300000002	179.338803	0.0999199999996562
157252	100	390	stimuli\animals\cat\animal_cat05.jpg             	1	5	1	animal_cat05.jpg     	animals  	0	cat       	6	cat05       	64	alive    	1	moves	1	natural 	1	n	0	0    	 	0.0	0	179.3889011	179.4888224	0.0999212999995506
157402	100	391	stimuli\movArt\boat\ma_boat05.jpg                	1	5	1	ma_boat05.jpg        	movArt   	2	boat      	2	boat05      	24	not_alive	0	moves	1	artefact	0	n	0	0    	 	0.0	0	179.5388906	179.63879509999998	0.0999044999998659
157552	100	392	stimuli\plant\flower\plant_flower01.jpg          	1	5	1	plant_flower01.jpg   	plant    	6	flower    	16	flower01    	160	alive    	1	still	0	natural 	1	n	0	0    	 	0.0	0	179.6888987	179.78882009999998	0.0999213999994026
157702	100	393	stimuli\movArt\train\ma_train01.jpg              	1	5	1	ma_train01.jpg       	movArt   	2	train     	34	train01     	340	not_alive	0	moves	1	artefact	0	n	0	0    	 	0.0	0	179.8388709	179.9388198	0.0999488999996174
157852	100	394	stimuli\movArt\boat\ma_boat09.jpg                	1	5	1	ma_boat09.jpg        	movArt   	2	boat      	2	boat09      	28	not_alive	0	moves	1	artefact	0	n	0	0    	 	0.0	0	179.9888921	180.0888123	0.0999201999993602
158002	100	395	stimuli\movArt\bus\ma_bus09.jpg                  	1	5	1	ma_bus09.jpg         	movArt   	2	bus       	3	bus09       	38	not_alive	0	moves	1	artefact	0	n	0	0    	 	0.0	0	180.1388767	180.2388979	0.100021199999901
158152	100	396	stimuli\movArt\helicopter\ma_helicopter02.jpg    	1	5	1	ma_helicopter02.jpg  	movArt   	2	helicopter	19	helicopter02	191	not_alive	0	moves	1	artefact	0	n	0	0    	 	0.0	0	180.2890775	180.38890859999998	0.0998311000003013
158302	100	397	stimuli\nonmovArt\clothespeg\nma_clothespeg07.jpg	1	5	1	nma_clothespeg07.jpg 	nonmovArt	4	clothespeg	8	clothespeg07	86	not_alive	0	still	0	artefact	0	n	0	0    	 	0.0	0	180.4388735	180.5388059	0.0999323999994885
158452	100	398	stimuli\movArt\train\ma_train10.jpg              	1	5	1	ma_train10.jpg       	movArt   	2	train     	34	train10     	349	not_alive	0	moves	1	artefact	0	n	0	0    	 	0.0	0	180.5888632	180.6887908	0.0999276000002282
158602	100	399	stimuli\plant2\palmtree\plant_palmtree02.jpg     	1	5	1	plant_palmtree02.jpg 	plant2   	7	palmtree  	27	palmtree02  	271	alive    	1	still	0	natural 	1	n	0	0    	 	0.0	0	180.7388695	180.83879040000002	0.0999209000001428
160885	100	400	stimuli\movArt\bus\ma_bus07.jpg                  	1	6	1	ma_bus07.jpg         	movArt   	2	bus       	3	bus07       	36	not_alive	0	moves	1	artefact	0	n	0	0    	 	0.0	0	183.02218330000002	183.1220846	0.0999013000000559
161035	100	401	stimuli\plant2\clover\plant_clover07.jpg         	1	6	1	plant_clover07.jpg   	plant2   	7	clover    	9	clover07    	96	alive    	1	still	0	natural 	1	n	0	0    	 	0.0	0	183.1721552	183.27209480000002	0.0999395999997432
161185	100	402	stimuli\plant2\moss\plant_moss04.jpg             	1	6	1	plant_moss04.jpg     	plant2   	7	moss      	25	moss04      	253	alive    	1	still	0	natural 	1	n	0	0    	 	0.0	0	183.3221801	183.42209119999998	0.0999111000000994
161335	100	403	stimuli\plant\grass\plant_grass10.jpg            	1	6	1	plant_grass10.jpg    	plant    	6	grass     	17	grass10     	179	alive    	1	still	0	natural 	1	n	0	0    	 	0.0	0	183.47216310000002	183.5721029	0.0999397999994471
161485	100	404	stimuli\plant\tree\plant_tree03.jpg              	1	6	1	plant_tree03.jpg     	plant    	6	tree      	35	tree03      	352	alive    	1	still	0	natural 	1	n	0	0    	 	0.0	0	183.6221821	183.7220935	0.0999113999996552
161635	100	405	stimuli\nonmovArt\mug\nma_mug02.jpg              	1	6	1	nma_mug02.jpg        	nonmovArt	4	mug       	26	mug02       	261	not_alive	0	still	0	artefact	0	n	0	0    	 	0.0	0	183.7721737	183.8720804	0.0999066999993374
161785	100	406	stimuli\plant\tree\plant_tree08.jpg              	1	6	1	plant_tree08.jpg     	plant    	6	tree      	35	tree08      	357	alive    	1	still	0	natural 	1	n	0	0    	 	0.0	0	183.9221832	184.0220871	0.0999038999998447
161935	100	407	stimuli\nonmovArt\headphones\nma_headphones04.jpg	1	6	1	nma_headphones04.jpg 	nonmovArt	4	headphones	18	headphones04	183	not_alive	0	still	0	artefact	0	n	0	0    	 	0.0	0	184.07217340000003	184.17208180000003	0.0999084000004586
162085	100	408	stimuli\animals2\pigeon\animal_pigeon02.jpg      	1	6	1	animal_pigeon02.jpg  	animals2 	1	pigeon    	28	pigeon02    	281	alive    	1	moves	1	natural 	1	n	0	0    	 	0.0	0	184.22215880000002	184.3220816	0.0999228000000584
162235	100	409	stimuli\animals2\lemur\animal_lemur05.jpg        	1	6	1	animal_lemur05.jpg   	animals2 	1	lemur     	23	lemur05     	234	alive    	1	moves	1	natural 	1	n	0	0    	 	0.0	0	184.3721573	184.4720805	0.0999231999994663
162385	100	410	stimuli\nonmovNat\cliff\nmn_cliff04.jpg          	1	6	1	nmn_cliff04.jpg      	nonmovNat	5	cliff     	7	cliff04     	73	not_alive	0	still	0	natural 	1	n	0	0    	 	0.0	0	184.5221519	184.6220981	0.0999461999999766
162535	100	411	stimuli\animals2\pigeon\animal_pigeon09.jpg      	1	6	1	animal_pigeon09.jpg  	animals2 	1	pigeon    	28	pigeon09    	288	alive    	1	moves	1	natural 	1	n	0	0    	 	0.0	0	184.6721669	184.7720775	0.0999105999999301
162685	100	412	stimuli\movArt\train\ma_train10.jpg              	1	6	1	ma_train10.jpg       	movArt   	2	train     	34	train10     	349	not_alive	0	moves	1	artefact	0	n	0	0    	 	0.0	0	184.82214869999999	184.9220489	0.0999001999998654
162835	100	413	stimuli\animals\eagle\animal_eagle05.jpg         	1	6	1	animal_eagle05.jpg   	animals  	0	eagle     	13	eagle05     	134	alive    	1	moves	1	natural 	1	n	0	0    	 	0.0	0	184.972185	185.07207250000002	0.0998875000004773
162985	100	414	stimuli\movNat\hotspring\mn_hotspring03.jpg      	1	6	1	mn_hotspring03.jpg   	movNat   	3	hotspring 	21	hotspring03 	212	not_alive	0	moves	1	natural 	1	n	0	0    	 	0.0	0	185.12214680000002	185.22209119999997	0.09994439999991302
163136	100	415	stimuli\animals\dog\animal_dog03.jpg             	1	6	1	animal_dog03.jpg     	animals  	0	dog       	11	dog03       	112	alive    	1	moves	1	natural 	1	n	0	0    	 	0.0	0	185.2722331	185.3720562	0.0998231000003215
163285	100	416	stimuli\movNat\hotspring\mn_hotspring01.jpg      	1	6	1	mn_hotspring01.jpg   	movNat   	3	hotspring 	21	hotspring01 	210	not_alive	0	moves	1	natural 	1	n	0	0    	 	0.0	0	185.422151799999	185.52206759999999	0.0999158000004172
163435	100	417	stimuli\nonmovNat\shell\nmn_shell05.jpg          	1	6	1	nmn_shell05.jpg      	nonmovNat	5	shell     	32	shell05     	324	not_alive	0	still	0	natural 	1	n	0	0    	 	0.0	0	185.5721589	185.6720681	0.0999092000001837
163585	100	418	stimuli\animals\horse\animal_horse05.jpg         	1	6	1	animal_horse05.jpg   	animals  	0	horse     	20	horse05     	204	alive    	1	moves	1	natural 	1	n	0	0    	 	0.0	0	185.7221471	185.8220677	0.0999205999996775
163735	100	419	stimuli\plant\flower\plant_flower07.jpg          	1	6	1	plant_flower07.jpg   	plant    	6	flower    	16	flower07    	166	alive    	1	still	0	natural 	1	n	0	0    	 	0.0	0	185.8721376	185.97206369999998	0.0999260999997204
163885	100	420	stimuli\nonmovArt\bench\nma_bench01.jpg          	1	6	1	nma_bench01.jpg      	nonmovArt	4	bench     	1	bench01     	10	not_alive	0	still	0	artefact	0	n	1	0    	 	0.0	0	186.0221521	186.12208619999998	0.0999340999997002
164035	100	421	stimuli\plant2\lemontree\plant_lemontree07.jpg   	1	6	1	plant_lemontree07.jpg	plant2   	7	lemontree 	22	lemontree07 	226	alive    	1	still	0	natural 	1	n	0	0    	 	0.0	0	186.1721584	186.2720744	0.0999160000001211
164185	100	422	stimuli\plant2\fern\plant_fern07.jpg             	1	6	1	plant_fern07.jpg     	plant2   	7	fern      	14	fern07      	146	alive    	1	still	0	natural 	1	n	0	1    	f	0.391932099999394	1	186.32210419999998	186.4220649	0.0999607000003379
164335	100	423	stimuli\animals\eagle\animal_eagle06.jpg         	1	6	1	animal_eagle06.jpg   	animals  	0	eagle     	13	eagle06     	135	alive    	1	moves	1	natural 	1	n	0	0    	 	0.0	0	186.4721581	186.5720704	0.0999122999992323
164485	100	424	stimuli\plant2\palmtree\plant_palmtree01.jpg     	1	6	1	plant_palmtree01.jpg 	plant2   	7	palmtree  	27	palmtree01  	270	alive    	1	still	0	natural 	1	n	0	0    	 	0.0	0	186.62213590000002	186.722059	0.0999230999996143
164635	100	425	stimuli\movArt\helicopter\ma_helicopter07.jpg    	1	6	1	ma_helicopter07.jpg  	movArt   	2	helicopter	19	helicopter07	196	not_alive	0	moves	1	artefact	0	n	0	0    	 	0.0	0	186.772132999999	186.87208280000002	0.099949800000104
164785	100	426	stimuli\nonmovArt\lock\nma_lock05.jpg            	1	6	1	nma_lock05.jpg       	nonmovArt	4	lock      	24	lock05      	244	not_alive	0	still	0	artefact	0	n	0	0    	 	0.0	0	186.92214950000002	187.022068499999	0.0999189999993177
164935	100	427	stimuli\animals2\tiger\animal_tiger05.jpg        	1	6	1	animal_tiger05.jpg   	animals2 	1	tiger     	33	tiger05     	334	alive    	1	moves	1	natural 	1	n	0	0    	 	0.0	0	187.072199	187.1720674	0.0998683999996501
