onset	duration	eventnumber	stimulus_file	blockno	trialno	is_faststream	stim	stim_category	category_number	exemplar	exemplar_number	image_name	image_number	aliveness	aliveness_bin	movement	movement_bin	naturalness	naturalness_bin	response_hand_moves	istarget	response	keypressed	rt	correct	time_stimon	time_stimoff	stimdur
71685	100	0	stimuli\animals\dog\animal_dog10.jpg             	1	1	1	animal_dog10.jpg     	animals  	0	dog       	11	dog10       	119	alive    	1	moves	1	natural 	1	n	0	0    	 	0.0	0	89.88490299973641	89.984881399665	0.0999783999286592
71835	100	1	stimuli\movNat\river\mn_river01.jpg              	1	1	1	mn_river01.jpg       	movNat   	3	river     	29	river01     	290	not_alive	0	moves	1	natural 	1	n	0	0    	 	0.0	0	90.034918199759	90.1348851998337	0.0999670000746846
71985	100	2	stimuli\animals\horse\animal_horse01.jpg         	1	1	1	animal_horse01.jpg   	animals  	0	horse     	20	horse01     	200	alive    	1	moves	1	natural 	1	n	0	0    	 	0.0	0	90.18489350005991	90.2848827997222	0.0999892996624112
72135	100	3	stimuli\plant2\fern\plant_fern01.jpg             	1	1	1	plant_fern01.jpg     	plant2   	7	fern      	14	fern01      	140	alive    	1	still	0	natural 	1	n	0	0    	 	0.0	0	90.3348916000687	90.43488219985741	0.0999905997887253
72285	100	4	stimuli\nonmovNat\rock\nmn_rock10.jpg            	1	1	1	nmn_rock10.jpg       	nonmovNat	5	rock      	30	rock10      	309	not_alive	0	still	0	natural 	1	n	0	0    	 	0.0	0	90.4848886998371	90.58487679995599	0.0999881001189351
72435	100	5	stimuli\plant2\clover\plant_clover02.jpg         	1	1	1	plant_clover02.jpg   	plant2   	7	clover    	9	clover02    	91	alive    	1	still	0	natural 	1	n	0	0    	 	0.0	0	90.63488660007721	90.73487759986891	0.0999909997917711
72585	100	6	stimuli\movNat\fire\mn_fire09.jpg                	1	1	1	mn_fire09.jpg        	movNat   	3	fire      	15	fire09      	158	not_alive	0	moves	1	natural 	1	n	0	0    	 	0.0	0	90.7848878996447	90.8848742996342	0.0999863999895751
72735	100	7	stimuli\animals2\whale\animal_whale09.jpg        	1	1	1	animal_whale09.jpg   	animals2 	1	whale     	39	whale09     	398	alive    	1	moves	1	natural 	1	n	0	0    	 	0.0	0	90.9348845998757	91.03487430000679	0.0999897001311183
72885	100	8	stimuli\animals\cat\animal_cat05.jpg             	1	1	1	animal_cat05.jpg     	animals  	0	cat       	6	cat05       	64	alive    	1	moves	1	natural 	1	n	0	0    	 	0.0	0	91.08520249975841	91.1848917999305	0.0996893001720309
73035	100	9	stimuli\plant2\clover\plant_clover03.jpg         	1	1	1	plant_clover03.jpg   	plant2   	7	clover    	9	clover03    	92	alive    	1	still	0	natural 	1	n	0	0    	 	0.0	0	91.2348787998781	91.33486949978399	0.0999906999059021
73185	100	10	stimuli\animals\dolphin\animal_dolphin03.jpg     	1	1	1	animal_dolphin03.jpg 	animals  	0	dolphin   	12	dolphin03   	122	alive    	1	moves	1	natural 	1	n	0	0    	 	0.0	0	91.38487749965859	91.4848658000119	0.0999883003532886
73335	100	11	stimuli\plant\cactus\plant_cactus03.jpg          	1	1	1	plant_cactus03.jpg   	plant    	6	cactus    	4	cactus03    	42	alive    	1	still	0	natural 	1	n	0	0    	 	0.0	0	91.534877799917	91.63486809981991	0.0999902999028563
73485	100	12	stimuli\movNat\fire\mn_fire07.jpg                	1	1	1	mn_fire07.jpg        	movNat   	3	fire      	15	fire07      	156	not_alive	0	moves	1	natural 	1	n	0	0    	 	0.0	0	91.6848728000186	91.7848672000691	0.0999944000504911
73635	100	13	stimuli\plant2\fern\plant_fern05.jpg             	1	1	1	plant_fern05.jpg     	plant2   	7	fern      	14	fern05      	144	alive    	1	still	0	natural 	1	n	0	0    	 	0.0	0	91.8348783999682	91.9348728996702	0.0999944997020065
73785	100	14	stimuli\movNat\waves\mn_waves05.jpg              	1	1	1	mn_waves05.jpg       	movNat   	3	waves     	38	waves05     	384	not_alive	0	moves	1	natural 	1	n	0	0    	 	0.0	0	91.98487159982321	92.0848586000502	0.0999870002269744
73935	100	15	stimuli\animals2\bee\animal_bee03.jpg            	1	1	1	animal_bee03.jpg     	animals2 	1	bee       	0	bee03       	2	alive    	1	moves	1	natural 	1	n	0	0    	 	0.0	0	92.13486790005122	92.2348589999601	0.0999910999089479
74085	100	16	stimuli\movNat\waves\mn_waves04.jpg              	1	1	1	mn_waves04.jpg       	movNat   	3	waves     	38	waves04     	383	not_alive	0	moves	1	natural 	1	n	0	0    	 	0.0	0	92.28486779984091	92.38485629996279	0.0999885001219809
74235	100	17	stimuli\animals2\whale\animal_whale05.jpg        	1	1	1	animal_whale05.jpg   	animals2 	1	whale     	39	whale05     	394	alive    	1	moves	1	natural 	1	n	0	1    	f	0.0	0	92.43486599996679	92.53485549986358	0.0999894998967647
74385	100	18	stimuli\animals2\tiger\animal_tiger09.jpg        	1	1	1	animal_tiger09.jpg   	animals2 	1	tiger     	33	tiger09     	338	alive    	1	moves	1	natural 	1	n	0	0    	 	0.0	0	92.5848639998585	92.68485220009458	0.0999882002361118
74535	100	19	stimuli\movArt\helicopter\ma_helicopter03.jpg    	1	1	1	ma_helicopter03.jpg  	movArt   	2	helicopter	19	helicopter03	192	not_alive	0	moves	1	artefact	0	n	0	0    	 	0.0	0	92.7348620998673	92.8348520998843	0.0999900000169873
74685	100	20	stimuli\nonmovNat\crystal\nmn_crystal01.jpg      	1	1	1	nmn_crystal01.jpg    	nonmovNat	5	crystal   	10	crystal01   	100	not_alive	0	still	0	natural 	1	n	0	0    	 	0.0	0	92.8848627000116	92.9848503996618	0.09998769965022801
74835	100	21	stimuli\plant\cactus\plant_cactus09.jpg          	1	1	1	plant_cactus09.jpg   	plant    	6	cactus    	4	cactus09    	48	alive    	1	still	0	natural 	1	n	0	0    	 	0.0	0	93.03486059978609	93.1348481997848	0.0999875999987125
74985	100	22	stimuli\animals2\pigeon\animal_pigeon09.jpg      	1	1	1	animal_pigeon09.jpg  	animals2 	1	pigeon    	28	pigeon09    	288	alive    	1	moves	1	natural 	1	n	0	0    	 	0.0	0	93.18485810002309	93.2848461996764	0.0999880996532738
75136	100	23	stimuli\animals\dog\animal_dog09.jpg             	1	1	1	animal_dog09.jpg     	animals  	0	dog       	11	dog09       	118	alive    	1	moves	1	natural 	1	n	1	0    	 	0.0	0	93.33570430008699	93.43564460007471	0.0999402999877929
75286	100	24	stimuli\animals2\bee\animal_bee09.jpg            	1	1	1	animal_bee09.jpg     	animals2 	1	bee       	0	bee09       	8	alive    	1	moves	1	natural 	1	n	0	0    	 	0.0	0	93.4857147997245	93.58562680007891	0.0999120003543794
75436	100	25	stimuli\nonmovNat\rock\nmn_rock03.jpg            	1	1	1	nmn_rock03.jpg       	nonmovNat	5	rock      	30	rock03      	302	not_alive	0	still	0	natural 	1	n	0	0    	 	0.0	0	93.63569829985501	93.7356123998761	0.0999141000211238
75586	100	26	stimuli\animals2\pigeon\animal_pigeon05.jpg      	1	1	1	animal_pigeon05.jpg  	animals2 	1	pigeon    	28	pigeon05    	284	alive    	1	moves	1	natural 	1	n	0	1    	f	0.557979799807072	1	93.7857244997285	93.88561220001431	0.0998877002857625
75736	100	27	stimuli\nonmovArt\bench\nma_bench07.jpg          	1	1	1	nma_bench07.jpg      	nonmovArt	4	bench     	1	bench07     	16	not_alive	0	still	0	artefact	0	n	0	0    	 	0.0	0	93.9357198998332	94.03559019975359	0.0998702999204397
75886	100	28	stimuli\nonmovArt\bench\nma_bench01.jpg          	1	1	1	nma_bench01.jpg      	nonmovArt	4	bench     	1	bench01     	10	not_alive	0	still	0	artefact	0	n	0	0    	 	0.0	0	94.0857082996517	94.1856031999923	0.0998949003405869
76036	100	29	stimuli\nonmovNat\crystal\nmn_crystal09.jpg      	1	1	1	nmn_crystal09.jpg    	nonmovNat	5	crystal   	10	crystal09   	108	not_alive	0	still	0	natural 	1	n	0	0    	 	0.0	0	94.2356969998218	94.33561509987341	0.0999181000515818
76186	100	30	stimuli\animals\dolphin\animal_dolphin05.jpg     	1	1	1	animal_dolphin05.jpg 	animals  	0	dolphin   	12	dolphin05   	124	alive    	1	moves	1	natural 	1	n	0	0    	 	0.0	0	94.3856965000741	94.48561610002069	0.0999195999465882
76336	100	31	stimuli\movNat\fire\mn_fire07.jpg                	1	1	1	mn_fire07.jpg        	movNat   	3	fire      	15	fire07      	156	not_alive	0	moves	1	natural 	1	n	0	0    	 	0.0	0	94.5356926997192	94.6355926999822	0.0999000002630055
76486	100	32	stimuli\movArt\helicopter\ma_helicopter09.jpg    	1	1	1	ma_helicopter09.jpg  	movArt   	2	helicopter	19	helicopter09	198	not_alive	0	moves	1	artefact	0	n	0	0    	 	0.0	0	94.6856915997341	94.78559649968521	0.0999048999510705
76636	100	33	stimuli\plant2\moss\plant_moss06.jpg             	1	1	1	plant_moss06.jpg     	plant2   	7	moss      	25	moss06      	255	alive    	1	still	0	natural 	1	n	0	0    	 	0.0	0	94.83566219965	94.9356005000882	0.0999383004382252
76786	100	34	stimuli\plant\tree\plant_tree06.jpg              	1	1	1	plant_tree06.jpg     	plant    	6	tree      	35	tree06      	355	alive    	1	still	0	natural 	1	n	0	0    	 	0.0	0	94.9858587998897	95.08561010006821	0.0997513001784682
76936	100	35	stimuli\nonmovArt\clothespeg\nma_clothespeg08.jpg	1	1	1	nma_clothespeg08.jpg 	nonmovArt	4	clothespeg	8	clothespeg08	87	not_alive	0	still	0	artefact	0	n	0	0    	 	0.0	0	95.1356855998747	95.23560129990801	0.09991570003330698
77086	100	36	stimuli\plant\tree\plant_tree09.jpg              	1	1	1	plant_tree09.jpg     	plant    	6	tree      	35	tree09      	358	alive    	1	still	0	natural 	1	n	0	0    	 	0.0	0	95.28568860003722	95.38561409991242	0.0999254998750984
77236	100	37	stimuli\plant2\lemontree\plant_lemontree06.jpg   	1	1	1	plant_lemontree06.jpg	plant2   	7	lemontree 	22	lemontree06 	225	alive    	1	still	0	natural 	1	n	0	0    	 	0.0	0	95.4356766999699	95.5355599997565	0.0998832997865974
77386	100	38	stimuli\animals\cat\animal_cat02.jpg             	1	1	1	animal_cat02.jpg     	animals  	0	cat       	6	cat02       	61	alive    	1	moves	1	natural 	1	n	1	0    	 	0.0	0	95.5856922999956	95.68560219975191	0.0999098997563123
77536	100	39	stimuli\plant2\palmtree\plant_palmtree05.jpg     	1	1	1	plant_palmtree05.jpg 	plant2   	7	palmtree  	27	palmtree05  	274	alive    	1	still	0	natural 	1	n	0	0    	 	0.0	0	95.7356766997836	95.83558869967241	0.0999119998887181
77686	100	40	stimuli\animals2\tiger\animal_tiger01.jpg        	1	1	1	animal_tiger01.jpg   	animals2 	1	tiger     	33	tiger01     	330	alive    	1	moves	1	natural 	1	n	0	1    	f	0.39200869994238	1	95.88568690000099	95.9855827996507	0.0998958996497094
77836	100	41	stimuli\nonmovNat\cliff\nmn_cliff10.jpg          	1	1	1	nmn_cliff10.jpg      	nonmovNat	5	cliff     	7	cliff10     	79	not_alive	0	still	0	natural 	1	n	0	0    	 	0.0	0	96.0356739000417	96.13558449968691	0.0999105996452272
77986	100	42	stimuli\movArt\train\ma_train07.jpg              	1	1	1	ma_train07.jpg       	movArt   	2	train     	34	train07     	346	not_alive	0	moves	1	artefact	0	n	0	0    	 	0.0	0	96.18566019972789	96.2855754997581	0.0999153000302612
78136	100	43	stimuli\movNat\hotspring\mn_hotspring05.jpg      	1	1	1	mn_hotspring05.jpg   	movNat   	3	hotspring 	21	hotspring05 	214	not_alive	0	moves	1	natural 	1	n	0	0    	 	0.0	0	96.3356731999666	96.4355680998415	0.0998948998749256
78286	100	44	stimuli\movArt\train\ma_train03.jpg              	1	1	1	ma_train03.jpg       	movArt   	2	train     	34	train03     	342	not_alive	0	moves	1	artefact	0	n	0	0    	 	0.0	0	96.4856646996923	96.5855707996525	0.0999060999602079
78436	100	45	stimuli\plant2\lemontree\plant_lemontree03.jpg   	1	1	1	plant_lemontree03.jpg	plant2   	7	lemontree 	22	lemontree03 	222	alive    	1	still	0	natural 	1	n	1	0    	 	0.0	0	96.6356663997285	96.7355814999901	0.09991510026156901
78586	100	46	stimuli\plant2\lemontree\plant_lemontree05.jpg   	1	1	1	plant_lemontree05.jpg	plant2   	7	lemontree 	22	lemontree05 	224	alive    	1	still	0	natural 	1	n	0	0    	 	0.0	0	96.78566990001129	96.88556089997292	0.0998909999616444
78736	100	47	stimuli\movNat\hotspring\mn_hotspring03.jpg      	1	1	1	mn_hotspring03.jpg   	movNat   	3	hotspring 	21	hotspring03 	212	not_alive	0	moves	1	natural 	1	n	0	1    	f	0.391990300267935	1	96.93567579984659	97.0356216998771	0.0999459000304341
78886	100	48	stimuli\animals2\lemur\animal_lemur08.jpg        	1	1	1	animal_lemur08.jpg   	animals2 	1	lemur     	23	lemur08     	237	alive    	1	moves	1	natural 	1	n	0	0    	 	0.0	0	97.08574400004	97.18558569997549	0.0998416999354958
79036	100	49	stimuli\animals2\pigeon\animal_pigeon03.jpg      	1	1	1	animal_pigeon03.jpg  	animals2 	1	pigeon    	28	pigeon03    	282	alive    	1	moves	1	natural 	1	n	0	0    	 	0.0	0	97.2356505999342	97.3355811997317	0.099930599797517
79186	100	50	stimuli\animals\eagle\animal_eagle03.jpg         	1	1	1	animal_eagle03.jpg   	animals  	0	eagle     	13	eagle03     	132	alive    	1	moves	1	natural 	1	n	0	0    	 	0.0	0	97.38567549968141	97.48555579967791	0.0998802999965846
79336	100	51	stimuli\animals\dog\animal_dog01.jpg             	1	1	1	animal_dog01.jpg     	animals  	0	dog       	11	dog01       	110	alive    	1	moves	1	natural 	1	n	0	0    	 	0.0	0	97.53566059982401	97.6355651998892	0.0999046000652015
79486	100	52	stimuli\movArt\train\ma_train07.jpg              	1	1	1	ma_train07.jpg       	movArt   	2	train     	34	train07     	346	not_alive	0	moves	1	artefact	0	n	0	0    	 	0.0	0	97.68565559992571	97.7855785996653	0.0999229997396469
79636	100	53	stimuli\nonmovNat\shell\nmn_shell01.jpg          	1	1	1	nmn_shell01.jpg      	nonmovNat	5	shell     	32	shell01     	320	not_alive	0	still	0	natural 	1	n	0	0    	 	0.0	0	97.83566219965	97.9355595000088	0.0998973003588616
79786	100	54	stimuli\plant\flower\plant_flower06.jpg          	1	1	1	plant_flower06.jpg   	plant    	6	flower    	16	flower06    	165	alive    	1	still	0	natural 	1	n	0	0    	 	0.0	0	97.9856575997546	98.08557670004672	0.099919100292027
79936	100	55	stimuli\animals2\tiger\animal_tiger03.jpg        	1	1	1	animal_tiger03.jpg   	animals2 	1	tiger     	33	tiger03     	332	alive    	1	moves	1	natural 	1	n	0	0    	 	0.0	0	98.13565689977258	98.2355452999473	0.0998884001746773
80086	100	56	stimuli\plant\tree\plant_tree03.jpg              	1	1	1	plant_tree03.jpg     	plant    	6	tree      	35	tree03      	352	alive    	1	still	0	natural 	1	n	0	0    	 	0.0	0	98.2856573997997	98.3855628999881	0.0999055001884698
80236	100	57	stimuli\movArt\car\ma_car03.jpg                  	1	1	1	ma_car03.jpg         	movArt   	2	car       	5	car03       	52	not_alive	0	moves	1	artefact	0	n	0	0    	 	0.0	0	98.43564740009609	98.53554910002279	0.0999016999267041
80386	100	58	stimuli\nonmovArt\mug\nma_mug05.jpg              	1	1	1	nma_mug05.jpg        	nonmovArt	4	mug       	26	mug05       	264	not_alive	0	still	0	artefact	0	n	0	0    	 	0.0	0	98.585649699904	98.68555599963291	0.0999062997289002
80536	100	59	stimuli\animals2\lemur\animal_lemur08.jpg        	1	1	1	animal_lemur08.jpg   	animals2 	1	lemur     	23	lemur08     	237	alive    	1	moves	1	natural 	1	n	0	0    	 	0.0	0	98.73563929973172	98.8356254999526	0.0999862002208828
80686	100	60	stimuli\plant\grass\plant_grass05.jpg            	1	1	1	plant_grass05.jpg    	plant    	6	grass     	17	grass05     	174	alive    	1	still	0	natural 	1	n	0	0    	 	0.0	0	98.8857136997394	98.98554809996858	0.099834400229156
80836	100	61	stimuli\nonmovNat\cliff\nmn_cliff01.jpg          	1	1	1	nmn_cliff01.jpg      	nonmovNat	5	cliff     	7	cliff01     	70	not_alive	0	still	0	natural 	1	n	0	0    	 	0.0	0	99.0356471999548	99.1355542000383	0.0999070000834763
80986	100	62	stimuli\nonmovNat\sand\nmn_sand04.jpg            	1	1	1	nmn_sand04.jpg       	nonmovNat	5	sand      	31	sand04      	313	not_alive	0	still	0	natural 	1	n	0	0    	 	0.0	0	99.18563620001079	99.285533499904	0.0998972998932004
81136	100	63	stimuli\nonmovNat\rock\nmn_rock04.jpg            	1	1	1	nmn_rock04.jpg       	nonmovNat	5	rock      	30	rock04      	303	not_alive	0	still	0	natural 	1	n	0	0    	 	0.0	0	99.33564129984009	99.43555069994179	0.09990940010175099
81286	100	64	stimuli\movArt\bus\ma_bus04.jpg                  	1	1	1	ma_bus04.jpg         	movArt   	2	bus       	3	bus04       	33	not_alive	0	moves	1	artefact	0	n	0	0    	 	0.0	0	99.4856285997666	99.5855449000374	0.0999163002707064
81436	100	65	stimuli\animals2\bee\animal_bee06.jpg            	1	1	1	animal_bee06.jpg     	animals2 	1	bee       	0	bee06       	5	alive    	1	moves	1	natural 	1	n	0	0    	 	0.0	0	99.6356393997558	99.7355387997814	0.0998994000256061
81586	100	66	stimuli\nonmovArt\bench\nma_bench07.jpg          	1	1	1	nma_bench07.jpg      	nonmovArt	4	bench     	1	bench07     	16	not_alive	0	still	0	artefact	0	n	0	0    	 	0.0	0	99.78563420008871	99.88554379995908	0.0999095998704433
81736	100	67	stimuli\plant2\fern\plant_fern01.jpg             	1	1	1	plant_fern01.jpg     	plant2   	7	fern      	14	fern01      	140	alive    	1	still	0	natural 	1	n	0	0    	 	0.0	0	99.9356476999819	100.03552730009001	0.0998796001076698
81886	100	68	stimuli\nonmovArt\headphones\nma_headphones08.jpg	1	1	1	nma_headphones08.jpg 	nonmovArt	4	headphones	18	headphones08	187	not_alive	0	still	0	artefact	0	n	0	0    	 	0.0	0	100.085631099995	100.185530199669	0.0998990996740758
82036	100	69	stimuli\animals\horse\animal_horse03.jpg         	1	1	1	animal_horse03.jpg   	animals  	0	horse     	20	horse03     	202	alive    	1	moves	1	natural 	1	n	0	0    	 	0.0	0	100.235625599977	100.33553949976299	0.0999138997867703
82186	100	70	stimuli\nonmovArt\mug\nma_mug03.jpg              	1	1	1	nma_mug03.jpg        	nonmovArt	4	mug       	26	mug03       	262	not_alive	0	still	0	artefact	0	n	0	0    	 	0.0	0	100.385634399951	100.485539800022	0.0999054000712931
82336	100	71	stimuli\animals\eagle\animal_eagle06.jpg         	1	1	1	animal_eagle06.jpg   	animals  	0	eagle     	13	eagle06     	135	alive    	1	moves	1	natural 	1	n	0	0    	 	0.0	0	100.535624600016	100.635524400044	0.0998998000286519
82486	100	72	stimuli\movNat\river\mn_river02.jpg              	1	1	1	mn_river02.jpg       	movNat   	3	river     	29	river02     	291	not_alive	0	moves	1	natural 	1	n	0	0    	 	0.0	0	100.68562839971901	100.78552239993601	0.0998940002173185
82636	100	73	stimuli\nonmovArt\lock\nma_lock04.jpg            	1	1	1	nma_lock04.jpg       	nonmovArt	4	lock      	24	lock04      	243	not_alive	0	still	0	artefact	0	n	0	0    	 	0.0	0	100.835620299913	100.935519499704	0.0998991997912526
82786	100	74	stimuli\nonmovNat\crystal\nmn_crystal04.jpg      	1	1	1	nmn_crystal04.jpg    	nonmovNat	5	crystal   	10	crystal04   	103	not_alive	0	still	0	natural 	1	n	0	0    	 	0.0	0	100.985618999694	101.085521399975	0.0999024002812802
82936	100	75	stimuli\nonmovNat\sand\nmn_sand06.jpg            	1	1	1	nmn_sand06.jpg       	nonmovNat	5	sand      	31	sand06      	315	not_alive	0	still	0	natural 	1	n	0	0    	 	0.0	0	101.135619899724	101.23551219981199	0.0998923000879585
83086	100	76	stimuli\plant\grass\plant_grass04.jpg            	1	1	1	plant_grass04.jpg    	plant    	6	grass     	17	grass04     	173	alive    	1	still	0	natural 	1	n	0	0    	 	0.0	0	101.28561110002899	101.385513499845	0.099902399815619
83236	100	77	stimuli\nonmovArt\clothespeg\nma_clothespeg09.jpg	1	1	1	nma_clothespeg09.jpg 	nonmovArt	4	clothespeg	8	clothespeg09	88	not_alive	0	still	0	artefact	0	n	0	0    	 	0.0	0	101.435625699814	101.535509299953	0.0998836001381278
83386	100	78	stimuli\nonmovArt\lock\nma_lock07.jpg            	1	1	1	nma_lock07.jpg       	nonmovArt	4	lock      	24	lock07      	246	not_alive	0	still	0	artefact	0	n	0	0    	 	0.0	0	101.585621099919	101.685519800056	0.0998987001366913
83536	100	79	stimuli\movArt\boat\ma_boat09.jpg                	1	1	1	ma_boat09.jpg        	movArt   	2	boat      	2	boat09      	28	not_alive	0	moves	1	artefact	0	n	0	0    	 	0.0	0	101.735615399666	101.83552269963499	0.0999072999693453
89536	100	80	stimuli\plant2\palmtree\plant_palmtree10.jpg     	1	2	1	plant_palmtree10.jpg 	plant2   	7	palmtree  	27	palmtree10  	279	alive    	1	still	0	natural 	1	n	0	0    	 	0.0	0	107.735545999836	107.835444499739	0.0998984999023378
89686	100	81	stimuli\movNat\river\mn_river05.jpg              	1	2	1	mn_river05.jpg       	movNat   	3	river     	29	river05     	294	not_alive	0	moves	1	natural 	1	n	0	0    	 	0.0	0	107.885535599664	107.98544369963899	0.0999080999754369
89836	100	82	stimuli\plant\vine\plant_vine09.jpg              	1	2	1	plant_vine09.jpg     	plant    	6	vine      	36	vine09      	368	alive    	1	still	0	natural 	1	n	0	0    	 	0.0	0	108.035536400042	108.1354485997	0.0999121996574103
89986	100	83	stimuli\plant\cactus\plant_cactus03.jpg          	1	2	1	plant_cactus03.jpg   	plant    	6	cactus    	4	cactus03    	42	alive    	1	still	0	natural 	1	n	0	0    	 	0.0	0	108.185562700033	108.285535299685	0.0999725996516645
90136	100	84	stimuli\nonmovArt\headphones\nma_headphones04.jpg	1	2	1	nma_headphones04.jpg 	nonmovArt	4	headphones	18	headphones04	183	not_alive	0	still	0	artefact	0	n	0	0    	 	0.0	0	108.335651999805	108.435440300032	0.0997883002273738
90286	100	85	stimuli\nonmovArt\mug\nma_mug08.jpg              	1	2	1	nma_mug08.jpg        	nonmovArt	4	mug       	26	mug08       	267	not_alive	0	still	0	artefact	0	n	0	0    	 	0.0	0	108.48553700000001	108.585456199944	0.0999191999435424
90436	100	86	stimuli\movNat\waterfall\mn_waterfall05.jpg      	1	2	1	mn_waterfall05.jpg   	movNat   	3	waterfall 	37	waterfall05 	374	not_alive	0	moves	1	natural 	1	n	0	0    	 	0.0	0	108.63553319964599	108.73543079989	0.0998976002447307
90586	100	87	stimuli\movArt\car\ma_car09.jpg                  	1	2	1	ma_car09.jpg         	movArt   	2	car       	5	car09       	58	not_alive	0	moves	1	artefact	0	n	0	0    	 	0.0	0	108.785513999872	108.88542940001899	0.09991540014743801
90736	100	88	stimuli\plant\vine\plant_vine09.jpg              	1	2	1	plant_vine09.jpg     	plant    	6	vine      	36	vine09      	368	alive    	1	still	0	natural 	1	n	0	0    	 	0.0	0	108.93553090002399	109.03541419980999	0.0998832997865974
90886	100	89	stimuli\plant2\moss\plant_moss01.jpg             	1	2	1	plant_moss01.jpg     	plant2   	7	moss      	25	moss01      	250	alive    	1	still	0	natural 	1	n	0	0    	 	0.0	0	109.085520599969	109.18541829986499	0.0998976998962462
91036	100	90	stimuli\plant\grass\plant_grass03.jpg            	1	2	1	plant_grass03.jpg    	plant    	6	grass     	17	grass03     	172	alive    	1	still	0	natural 	1	n	0	0    	 	0.0	0	109.235519099981	109.33541609998801	0.0998970000073313
91186	100	91	stimuli\movArt\car\ma_car04.jpg                  	1	2	1	ma_car04.jpg         	movArt   	2	car       	5	car04       	53	not_alive	0	moves	1	artefact	0	n	0	0    	 	0.0	0	109.385513499845	109.485420699697	0.0999071998521685
91336	100	92	stimuli\nonmovArt\lock\nma_lock03.jpg            	1	2	1	nma_lock03.jpg       	nonmovArt	4	lock      	24	lock03      	242	not_alive	0	still	0	artefact	0	n	0	0    	 	0.0	0	109.535516799893	109.635410699993	0.0998939001001417
91486	100	93	stimuli\plant2\clover\plant_clover04.jpg         	1	2	1	plant_clover04.jpg   	plant2   	7	clover    	9	clover04    	93	alive    	1	still	0	natural 	1	n	0	0    	 	0.0	0	109.68551509967101	109.785430300049	0.0999152003787458
91636	100	94	stimuli\plant2\palmtree\plant_palmtree04.jpg     	1	2	1	plant_palmtree04.jpg 	plant2   	7	palmtree  	27	palmtree04  	273	alive    	1	still	0	natural 	1	n	0	0    	 	0.0	0	109.835520799737	109.935424299911	0.0999035001732409
91786	100	95	stimuli\plant\flower\plant_flower02.jpg          	1	2	1	plant_flower02.jpg   	plant    	6	flower    	16	flower02    	161	alive    	1	still	0	natural 	1	n	0	0    	 	0.0	0	109.98564619990101	110.08550549997	0.0998593000695109
91936	100	96	stimuli\movArt\bus\ma_bus10.jpg                  	1	2	1	ma_bus10.jpg         	movArt   	2	bus       	3	bus10       	39	not_alive	0	moves	1	artefact	0	n	0	0    	 	0.0	0	110.135557999834	110.2353730998	0.0998150999657809
92086	100	97	stimuli\movArt\helicopter\ma_helicopter09.jpg    	1	2	1	ma_helicopter09.jpg  	movArt   	2	helicopter	19	helicopter09	198	not_alive	0	moves	1	artefact	0	n	0	0    	 	0.0	0	110.28551199985701	110.38541109999599	0.0998991001397371
92236	100	98	stimuli\plant2\moss\plant_moss05.jpg             	1	2	1	plant_moss05.jpg     	plant2   	7	moss      	25	moss05      	254	alive    	1	still	0	natural 	1	n	1	0    	 	0.0	0	110.43551109963998	110.53541939985	0.0999083002097904
92386	100	99	stimuli\plant\flower\plant_flower08.jpg          	1	2	1	plant_flower08.jpg   	plant    	6	flower    	16	flower08    	167	alive    	1	still	0	natural 	1	n	0	0    	 	0.0	0	110.585506800096	110.685407300014	0.0999004999175667
92536	100	100	stimuli\animals\horse\animal_horse07.jpg         	1	2	1	animal_horse07.jpg   	animals  	0	horse     	20	horse07     	206	alive    	1	moves	1	natural 	1	n	0	1    	f	0.39197620004415507	1	110.73550579976299	110.835408699699	0.0999028999358415
92686	100	101	stimuli\movArt\bus\ma_bus02.jpg                  	1	2	1	ma_bus02.jpg         	movArt   	2	bus       	3	bus02       	31	not_alive	0	moves	1	artefact	0	n	0	0    	 	0.0	0	110.88550129998501	110.985410599969	0.0999092999845743
92836	100	102	stimuli\movArt\boat\ma_boat07.jpg                	1	2	1	ma_boat07.jpg        	movArt   	2	boat      	2	boat07      	26	not_alive	0	moves	1	artefact	0	n	0	0    	 	0.0	0	111.03550060000299	111.135403399821	0.0999027998186648
92986	100	103	stimuli\nonmovNat\sand\nmn_sand08.jpg            	1	2	1	nmn_sand08.jpg       	nonmovNat	5	sand      	31	sand08      	317	not_alive	0	still	0	natural 	1	n	0	0    	 	0.0	0	111.185500999913	111.285398699809	0.0998976998962462
93136	100	104	stimuli\animals\cat\animal_cat02.jpg             	1	2	1	animal_cat02.jpg     	animals  	0	cat       	6	cat02       	61	alive    	1	moves	1	natural 	1	n	0	0    	 	0.0	0	111.33550129970502	111.435407399666	0.0999060999602079
93286	100	105	stimuli\nonmovNat\shell\nmn_shell08.jpg          	1	2	1	nmn_shell08.jpg      	nonmovNat	5	shell     	32	shell08     	327	not_alive	0	still	0	natural 	1	n	0	0    	 	0.0	0	111.48550489963999	111.58540649991501	0.0999016002751886
93436	100	106	stimuli\movNat\hotspring\mn_hotspring02.jpg      	1	2	1	mn_hotspring02.jpg   	movNat   	3	hotspring 	21	hotspring02 	211	not_alive	0	moves	1	natural 	1	n	0	0    	 	0.0	0	111.635479799937	111.735389799811	0.0999099998734891
93586	100	107	stimuli\animals2\whale\animal_whale05.jpg        	1	2	1	animal_whale05.jpg   	animals2 	1	whale     	39	whale05     	394	alive    	1	moves	1	natural 	1	n	0	0    	 	0.0	0	111.78560599964099	111.88546440005301	0.0998584004119038
93736	100	108	stimuli\plant\vine\plant_vine06.jpg              	1	2	1	plant_vine06.jpg     	plant    	6	vine      	36	vine06      	365	alive    	1	still	0	natural 	1	n	0	0    	 	0.0	0	111.93549519963601	112.03539930004601	0.0999041004106402
93886	100	109	stimuli\nonmovArt\clothespeg\nma_clothespeg04.jpg	1	2	1	nma_clothespeg04.jpg 	nonmovArt	4	clothespeg	8	clothespeg04	83	not_alive	0	still	0	artefact	0	n	0	0    	 	0.0	0	112.08549509989099	112.185390499886	0.0998953999951481
94036	100	110	stimuli\nonmovNat\cliff\nmn_cliff04.jpg          	1	2	1	nmn_cliff04.jpg      	nonmovNat	5	cliff     	7	cliff04     	73	not_alive	0	still	0	natural 	1	n	0	0    	 	0.0	0	112.23549770004999	112.335394499823	0.0998967997729778
94186	100	111	stimuli\animals2\lemur\animal_lemur09.jpg        	1	2	1	animal_lemur09.jpg   	animals2 	1	lemur     	23	lemur09     	238	alive    	1	moves	1	natural 	1	n	0	0    	 	0.0	0	112.38548719976102	112.485395399854	0.0999082000926137
94336	100	112	stimuli\animals\eagle\animal_eagle05.jpg         	1	2	1	animal_eagle05.jpg   	animals  	0	eagle     	13	eagle05     	134	alive    	1	moves	1	natural 	1	n	0	0    	 	0.0	0	112.535486399662	112.63538319989999	0.0998968002386391
94486	100	113	stimuli\movNat\waterfall\mn_waterfall06.jpg      	1	2	1	mn_waterfall06.jpg   	movNat   	3	waterfall 	37	waterfall06 	375	not_alive	0	moves	1	natural 	1	n	0	0    	 	0.0	0	112.68547749985001	112.78537439974	0.0998968998901546
94636	100	114	stimuli\nonmovNat\shell\nmn_shell05.jpg          	1	2	1	nmn_shell05.jpg      	nonmovNat	5	shell     	32	shell05     	324	not_alive	0	still	0	natural 	1	n	0	0    	 	0.0	0	112.835484599695	112.935380700044	0.0998961003497242
94786	100	115	stimuli\animals\dolphin\animal_dolphin03.jpg     	1	2	1	animal_dolphin03.jpg 	animals  	0	dolphin   	12	dolphin03   	122	alive    	1	moves	1	natural 	1	n	0	0    	 	0.0	0	112.985473899636	113.085402199998	0.0999283003620803
94936	100	116	stimuli\nonmovArt\headphones\nma_headphones05.jpg	1	2	1	nma_headphones05.jpg 	nonmovArt	4	headphones	18	headphones05	184	not_alive	0	still	0	artefact	0	n	0	0    	 	0.0	0	113.13547919969999	113.235364099964	0.0998849002644419
95086	100	117	stimuli\movNat\waves\mn_waves09.jpg              	1	2	1	mn_waves09.jpg       	movNat   	3	waves     	38	waves09     	388	not_alive	0	moves	1	natural 	1	n	0	0    	 	0.0	0	113.28548529976999	113.385381599888	0.0998963001184165
95236	100	118	stimuli\movNat\waterfall\mn_waterfall09.jpg      	1	2	1	mn_waterfall09.jpg   	movNat   	3	waterfall 	37	waterfall09 	378	not_alive	0	moves	1	natural 	1	n	1	0    	 	0.0	0	113.435472699814	113.53538829973	0.0999155999161303
95386	100	119	stimuli\movArt\boat\ma_boat06.jpg                	1	2	1	ma_boat06.jpg        	movArt   	2	boat      	2	boat06      	25	not_alive	0	moves	1	artefact	0	n	0	0    	 	0.0	0	113.585576199926	113.68540999991801	0.0998337999917566
95536	100	120	stimuli\movNat\river\mn_river03.jpg              	1	2	1	mn_river03.jpg       	movNat   	3	river     	29	river03     	292	not_alive	0	moves	1	natural 	1	n	0	1    	f	0.30027659982442895	1	113.73554469971	113.83537659980401	0.0998319000937044
95686	100	121	stimuli\movNat\river\mn_river08.jpg              	1	2	1	mn_river08.jpg       	movNat   	3	river     	29	river08     	297	not_alive	0	moves	1	natural 	1	n	0	0    	 	0.0	0	113.885467200074	113.985364299733	0.0998970996588468
95836	100	122	stimuli\plant\flower\plant_flower01.jpg          	1	2	1	plant_flower01.jpg   	plant    	6	flower    	16	flower01    	160	alive    	1	still	0	natural 	1	n	0	0    	 	0.0	0	114.035478499718	114.135379599873	0.0999011001549661
95986	100	123	stimuli\nonmovArt\lock\nma_lock09.jpg            	1	2	1	nma_lock09.jpg       	nonmovArt	4	lock      	24	lock09      	248	not_alive	0	still	0	artefact	0	n	0	0    	 	0.0	0	114.185466299765	114.28537099994699	0.0999047001823782
96135	100	124	stimuli\plant2\moss\plant_moss02.jpg             	1	2	1	plant_moss02.jpg     	plant2   	7	moss      	25	moss02      	251	alive    	1	still	0	natural 	1	n	0	0    	 	0.0	0	114.33545830007601	114.435364599805	0.0999062997289002
96285	100	125	stimuli\movNat\hotspring\mn_hotspring08.jpg      	1	2	1	mn_hotspring08.jpg   	movNat   	3	hotspring 	21	hotspring08 	217	not_alive	0	moves	1	natural 	1	n	1	0    	 	0.0	0	114.485448000021	114.585366599727	0.0999185997061431
96435	100	126	stimuli\movArt\train\ma_train06.jpg              	1	2	1	ma_train06.jpg       	movArt   	2	train     	34	train06     	345	not_alive	0	moves	1	artefact	0	n	0	0    	 	0.0	0	114.63544610003001	114.735362899955	0.0999167999252677
96585	100	127	stimuli\nonmovArt\clothespeg\nma_clothespeg05.jpg	1	2	1	nma_clothespeg05.jpg 	nonmovArt	4	clothespeg	8	clothespeg05	84	not_alive	0	still	0	artefact	0	n	0	1    	f	0.39198989979922794	1	114.785455099773	114.885353299789	0.0998982000164687
96736	100	128	stimuli\plant\vine\plant_vine01.jpg              	1	2	1	plant_vine01.jpg     	plant    	6	vine      	36	vine01      	360	alive    	1	still	0	natural 	1	n	0	0    	 	0.0	0	114.935461199842	115.035374999978	0.0999138001352548
96885	100	129	stimuli\plant\cactus\plant_cactus06.jpg          	1	2	1	plant_cactus06.jpg   	plant    	6	cactus    	4	cactus06    	45	alive    	1	still	0	natural 	1	n	0	0    	 	0.0	0	115.08545399969401	115.185360699892	0.0999067001976072
97035	100	130	stimuli\animals2\tiger\animal_tiger07.jpg        	1	2	1	animal_tiger07.jpg   	animals2 	1	tiger     	33	tiger07     	336	alive    	1	moves	1	natural 	1	n	0	0    	 	0.0	0	115.235450000037	115.33546769991501	0.100017699878663
97186	100	131	stimuli\movArt\bus\ma_bus06.jpg                  	1	2	1	ma_bus06.jpg         	movArt   	2	bus       	3	bus06       	35	not_alive	0	moves	1	artefact	0	n	0	0    	 	0.0	0	115.38554909965	115.485396000091	0.0998469004407525
97336	100	132	stimuli\animals\dolphin\animal_dolphin04.jpg     	1	2	1	animal_dolphin04.jpg 	animals  	0	dolphin   	12	dolphin04   	123	alive    	1	moves	1	natural 	1	n	0	0    	 	0.0	0	115.535459700041	115.63536869967399	0.099908999633044
97485	100	133	stimuli\nonmovArt\lock\nma_lock10.jpg            	1	2	1	nma_lock10.jpg       	nonmovArt	4	lock      	24	lock10      	249	not_alive	0	still	0	artefact	0	n	0	0    	 	0.0	0	115.68544199969601	115.785355299711	0.0999133000150322
97636	100	134	stimuli\nonmovArt\headphones\nma_headphones09.jpg	1	2	1	nma_headphones09.jpg 	nonmovArt	4	headphones	18	headphones09	188	not_alive	0	still	0	artefact	0	n	0	0    	 	0.0	0	115.835456399713	115.935367099941	0.0999107002280652
97785	100	135	stimuli\movArt\car\ma_car07.jpg                  	1	2	1	ma_car07.jpg         	movArt   	2	car       	5	car07       	56	not_alive	0	moves	1	artefact	0	n	0	0    	 	0.0	0	115.98544399999099	116.08535129996001	0.0999072999693453
97935	100	136	stimuli\nonmovNat\crystal\nmn_crystal09.jpg      	1	2	1	nmn_crystal09.jpg    	nonmovNat	5	crystal   	10	crystal09   	108	not_alive	0	still	0	natural 	1	n	0	0    	 	0.0	0	116.135438799858	116.235329600051	0.0998908001929521
98085	100	137	stimuli\nonmovArt\mug\nma_mug10.jpg              	1	2	1	nma_mug10.jpg        	nonmovArt	4	mug       	26	mug10       	269	not_alive	0	still	0	artefact	0	n	0	0    	 	0.0	0	116.28543639974701	116.385338999797	0.0999026000499725
98235	100	138	stimuli\animals2\lemur\animal_lemur08.jpg        	1	2	1	animal_lemur08.jpg   	animals2 	1	lemur     	23	lemur08     	237	alive    	1	moves	1	natural 	1	n	0	0    	 	0.0	0	116.435438599903	116.53533549979299	0.0998968998901546
98385	100	139	stimuli\plant2\palmtree\plant_palmtree02.jpg     	1	2	1	plant_palmtree02.jpg 	plant2   	7	palmtree  	27	palmtree02  	271	alive    	1	still	0	natural 	1	n	0	0    	 	0.0	0	116.58545079966999	116.68536589993201	0.09991510026156901
98535	100	140	stimuli\animals\cat\animal_cat09.jpg             	1	2	1	animal_cat09.jpg     	animals  	0	cat       	6	cat09       	68	alive    	1	moves	1	natural 	1	n	0	0    	 	0.0	0	116.735442500096	116.83532639965401	0.0998838995583355
98685	100	141	stimuli\nonmovNat\sand\nmn_sand03.jpg            	1	2	1	nmn_sand03.jpg       	nonmovNat	5	sand      	31	sand03      	312	not_alive	0	still	0	natural 	1	n	0	0    	 	0.0	0	116.885425299872	116.98534939996901	0.0999241000972688
98835	100	142	stimuli\animals2\pigeon\animal_pigeon01.jpg      	1	2	1	animal_pigeon01.jpg  	animals2 	1	pigeon    	28	pigeon01    	280	alive    	1	moves	1	natural 	1	n	0	0    	 	0.0	0	117.035434599966	117.135435800068	0.10000120010227001
98986	100	143	stimuli\animals2\tiger\animal_tiger01.jpg        	1	2	1	animal_tiger01.jpg   	animals2 	1	tiger     	33	tiger01     	330	alive    	1	moves	1	natural 	1	n	0	0    	 	0.0	0	117.185660500079	117.285419799853	0.0997592997737228
99136	100	144	stimuli\plant\cactus\plant_cactus10.jpg          	1	2	1	plant_cactus10.jpg   	plant    	6	cactus    	4	cactus10    	49	alive    	1	still	0	natural 	1	n	0	0    	 	0.0	0	117.33545209979602	117.435362499673	0.0999103998765349
99285	100	145	stimuli\animals\dog\animal_dog05.jpg             	1	2	1	animal_dog05.jpg     	animals  	0	dog       	11	dog05       	114	alive    	1	moves	1	natural 	1	n	0	0    	 	0.0	0	117.485434399918	117.585357099771	0.0999226998537778
99436	100	146	stimuli\animals2\bee\animal_bee10.jpg            	1	2	1	animal_bee10.jpg     	animals2 	1	bee       	0	bee10       	9	alive    	1	moves	1	natural 	1	n	0	0    	 	0.0	0	117.635462899692	117.73533349996401	0.09987060027196999
99586	100	147	stimuli\movArt\helicopter\ma_helicopter02.jpg    	1	2	1	ma_helicopter02.jpg  	movArt   	2	helicopter	19	helicopter02	191	not_alive	0	moves	1	artefact	0	n	0	0    	 	0.0	0	117.785449299961	117.88535929983499	0.0999099998734891
99735	100	148	stimuli\animals\cat\animal_cat08.jpg             	1	2	1	animal_cat08.jpg     	animals  	0	cat       	6	cat08       	67	alive    	1	moves	1	natural 	1	n	0	0    	 	0.0	0	117.93542329966999	118.03535789996401	0.0999346002936363
99885	100	149	stimuli\plant2\clover\plant_clover07.jpg         	1	2	1	plant_clover07.jpg   	plant2   	7	clover    	9	clover07    	96	alive    	1	still	0	natural 	1	n	0	0    	 	0.0	0	118.085424100049	118.185346100014	0.099921999964863
100036	100	150	stimuli\movArt\train\ma_train01.jpg              	1	2	1	ma_train01.jpg       	movArt   	2	train     	34	train01     	340	not_alive	0	moves	1	artefact	0	n	0	0    	 	0.0	0	118.235448800027	118.335351400077	0.0999026000499725
100186	100	151	stimuli\movNat\waves\mn_waves10.jpg              	1	2	1	mn_waves10.jpg       	movNat   	3	waves     	38	waves10     	389	not_alive	0	moves	1	natural 	1	n	0	0    	 	0.0	0	118.38543609995399	118.485370500013	0.0999344000592827
100335	100	152	stimuli\animals\horse\animal_horse05.jpg         	1	2	1	animal_horse05.jpg   	animals  	0	horse     	20	horse05     	204	alive    	1	moves	1	natural 	1	n	0	0    	 	0.0	0	118.53542219987101	118.635330399964	0.0999082000926137
100486	100	153	stimuli\movNat\waterfall\mn_waterfall07.jpg      	1	2	1	mn_waterfall07.jpg   	movNat   	3	waterfall 	37	waterfall07 	376	not_alive	0	moves	1	natural 	1	n	0	0    	 	0.0	0	118.685449799988	118.785322600044	0.0998728000558912
100636	100	154	stimuli\animals\dog\animal_dog07.jpg             	1	2	1	animal_dog07.jpg     	animals  	0	dog       	11	dog07       	116	alive    	1	moves	1	natural 	1	n	0	0    	 	0.0	0	118.835467199795	118.93553869985	0.10007150005549198
100786	100	155	stimuli\plant2\lemontree\plant_lemontree05.jpg   	1	2	1	plant_lemontree05.jpg	plant2   	7	lemontree 	22	lemontree05 	224	alive    	1	still	0	natural 	1	n	0	0    	 	0.0	0	118.98562090005699	119.085369499866	0.0997485998086631
100935	100	156	stimuli\movNat\river\mn_river01.jpg              	1	2	1	mn_river01.jpg       	movNat   	3	river     	29	river01     	290	not_alive	0	moves	1	natural 	1	n	0	0    	 	0.0	0	119.135414199904	119.235306299757	0.09989209985360499
101086	100	157	stimuli\animals\eagle\animal_eagle07.jpg         	1	2	1	animal_eagle07.jpg   	animals  	0	eagle     	13	eagle07     	136	alive    	1	moves	1	natural 	1	n	0	0    	 	0.0	0	119.285465799738	119.385306499898	0.0998407001607119
101235	100	158	stimuli\plant\grass\plant_grass08.jpg            	1	2	1	plant_grass08.jpg    	plant    	6	grass     	17	grass08     	177	alive    	1	still	0	natural 	1	n	0	0    	 	0.0	0	119.435411799699	119.535320899915	0.099909100215882
101385	100	159	stimuli\movNat\waterfall\mn_waterfall03.jpg      	1	2	1	mn_waterfall03.jpg   	movNat   	3	waterfall 	37	waterfall03 	372	not_alive	0	moves	1	natural 	1	n	0	0    	 	0.0	0	119.58540609991199	119.685339499731	0.0999333998188376
104902	100	160	stimuli\nonmovNat\shell\nmn_shell05.jpg          	1	3	1	nmn_shell05.jpg      	nonmovNat	5	shell     	32	shell05     	324	not_alive	0	still	0	natural 	1	n	0	0    	 	0.0	0	123.10202769981701	123.201939600054	0.0999119002372026
105052	100	161	stimuli\nonmovArt\headphones\nma_headphones02.jpg	1	3	1	nma_headphones02.jpg 	nonmovArt	4	headphones	18	headphones02	181	not_alive	0	still	0	artefact	0	n	0	0    	 	0.0	0	123.252024000045	123.351932699792	0.0999086997471749
105202	100	162	stimuli\nonmovArt\mug\nma_mug04.jpg              	1	3	1	nma_mug04.jpg        	nonmovArt	4	mug       	26	mug04       	263	not_alive	0	still	0	artefact	0	n	0	0    	 	0.0	0	123.402023399714	123.501930699684	0.0999072999693453
105352	100	163	stimuli\animals\horse\animal_horse10.jpg         	1	3	1	animal_horse10.jpg   	animals  	0	horse     	20	horse10     	209	alive    	1	moves	1	natural 	1	n	0	0    	 	0.0	0	123.552032799926	123.65191969973999	0.0998868998140096
105502	100	164	stimuli\plant2\fern\plant_fern02.jpg             	1	3	1	plant_fern02.jpg     	plant2   	7	fern      	14	fern02      	141	alive    	1	still	0	natural 	1	n	0	0    	 	0.0	0	123.70201889984301	123.801924199797	0.0999052999541163
105652	100	165	stimuli\animals\cat\animal_cat03.jpg             	1	3	1	animal_cat03.jpg     	animals  	0	cat       	6	cat03       	62	alive    	1	moves	1	natural 	1	n	0	0    	 	0.0	0	123.852004899643	123.95192079991101	0.0999159002676606
105802	100	166	stimuli\nonmovNat\rock\nmn_rock05.jpg            	1	3	1	nmn_rock05.jpg       	nonmovNat	5	rock      	30	rock05      	304	not_alive	0	still	0	natural 	1	n	0	0    	 	0.0	0	124.00201159995001	124.10192159982401	0.0999099998734891
105952	100	167	stimuli\movNat\waves\mn_waves02.jpg              	1	3	1	mn_waves02.jpg       	movNat   	3	waves     	38	waves02     	381	not_alive	0	moves	1	natural 	1	n	0	0    	 	0.0	0	124.152019199915	124.2519175997	0.099898399785161
106102	100	168	stimuli\plant\flower\plant_flower01.jpg          	1	3	1	plant_flower01.jpg   	plant    	6	flower    	16	flower01    	160	alive    	1	still	0	natural 	1	n	0	0    	 	0.0	0	124.302027799655	124.401917499956	0.0998897003009915
106252	100	169	stimuli\movArt\boat\ma_boat04.jpg                	1	3	1	ma_boat04.jpg        	movArt   	2	boat      	2	boat04      	23	not_alive	0	moves	1	artefact	0	n	0	0    	 	0.0	0	124.45202479977199	124.551996299997	0.0999715002253651
106402	100	170	stimuli\plant\grass\plant_grass10.jpg            	1	3	1	plant_grass10.jpg    	plant    	6	grass     	17	grass10     	179	alive    	1	still	0	natural 	1	n	0	0    	 	0.0	0	124.60201219981501	124.701948700007	0.0999365001916885
106552	100	171	stimuli\nonmovArt\clothespeg\nma_clothespeg01.jpg	1	3	1	nma_clothespeg01.jpg 	nonmovArt	4	clothespeg	8	clothespeg01	80	not_alive	0	still	0	artefact	0	n	0	0    	 	0.0	0	124.75201339973101	124.851895200089	0.0998818003572523
106702	100	172	stimuli\movNat\hotspring\mn_hotspring09.jpg      	1	3	1	mn_hotspring09.jpg   	movNat   	3	hotspring 	21	hotspring09 	218	not_alive	0	moves	1	natural 	1	n	0	0    	 	0.0	0	124.901996799745	125.001908199862	0.09991140011698
106852	100	173	stimuli\movArt\car\ma_car07.jpg                  	1	3	1	ma_car07.jpg         	movArt   	2	car       	5	car07       	56	not_alive	0	moves	1	artefact	0	n	0	0    	 	0.0	0	125.05200939998001	125.151910000015	0.0999006000347435
107002	100	174	stimuli\plant2\lemontree\plant_lemontree07.jpg   	1	3	1	plant_lemontree07.jpg	plant2   	7	lemontree 	22	lemontree07 	226	alive    	1	still	0	natural 	1	n	1	0    	 	0.0	0	125.202000699937	125.30191789986601	0.0999171999283135
107152	100	175	stimuli\nonmovArt\bench\nma_bench09.jpg          	1	3	1	nma_bench09.jpg      	nonmovArt	4	bench     	1	bench09     	18	not_alive	0	still	0	artefact	0	n	0	0    	 	0.0	0	125.351991199888	125.451906600036	0.09991540014743801
107302	100	176	stimuli\plant\vine\plant_vine04.jpg              	1	3	1	plant_vine04.jpg     	plant    	6	vine      	36	vine04      	363	alive    	1	still	0	natural 	1	n	0	1    	f	0.39198009995743605	1	125.501998600084	125.601892999839	0.099894399754703
107452	100	177	stimuli\nonmovNat\sand\nmn_sand05.jpg            	1	3	1	nmn_sand05.jpg       	nonmovNat	5	sand      	31	sand05      	314	not_alive	0	still	0	natural 	1	n	0	0    	 	0.0	0	125.651985199656	125.751900699921	0.0999155002646148
107602	100	178	stimuli\animals2\lemur\animal_lemur04.jpg        	1	3	1	animal_lemur04.jpg   	animals2 	1	lemur     	23	lemur04     	233	alive    	1	moves	1	natural 	1	n	0	0    	 	0.0	0	125.802083599847	125.901913499925	0.0998299000784754
107752	100	179	stimuli\plant\cactus\plant_cactus01.jpg          	1	3	1	plant_cactus01.jpg   	plant    	6	cactus    	4	cactus01    	40	alive    	1	still	0	natural 	1	n	0	0    	 	0.0	0	125.95199579978399	126.051888099872	0.0998923000879585
107902	100	180	stimuli\nonmovNat\rock\nmn_rock09.jpg            	1	3	1	nmn_rock09.jpg       	nonmovNat	5	rock      	30	rock09      	308	not_alive	0	still	0	natural 	1	n	0	0    	 	0.0	0	126.102016000077	126.201895999722	0.0998799996450543
108052	100	181	stimuli\movNat\fire\mn_fire02.jpg                	1	3	1	mn_fire02.jpg        	movNat   	3	fire      	15	fire02      	151	not_alive	0	moves	1	natural 	1	n	0	0    	 	0.0	0	126.25198299996599	126.35188579978399	0.0999027998186648
108202	100	182	stimuli\nonmovArt\headphones\nma_headphones06.jpg	1	3	1	nma_headphones06.jpg 	nonmovArt	4	headphones	18	headphones06	185	not_alive	0	still	0	artefact	0	n	0	0    	 	0.0	0	126.40205999976001	126.501925299875	0.0998653001151979
108352	100	183	stimuli\animals2\tiger\animal_tiger05.jpg        	1	3	1	animal_tiger05.jpg   	animals2 	1	tiger     	33	tiger05     	334	alive    	1	moves	1	natural 	1	n	0	0    	 	0.0	0	126.551989799831	126.65190259972601	0.0999127998948097
108502	100	184	stimuli\nonmovArt\lock\nma_lock10.jpg            	1	3	1	nma_lock10.jpg       	nonmovArt	4	lock      	24	lock10      	249	not_alive	0	still	0	artefact	0	n	0	0    	 	0.0	0	126.701970899943	126.801894600037	0.09992370009422301
108652	100	185	stimuli\animals\dolphin\animal_dolphin10.jpg     	1	3	1	animal_dolphin10.jpg 	animals  	0	dolphin   	12	dolphin10   	129	alive    	1	moves	1	natural 	1	n	0	0    	 	0.0	0	126.85199850006	126.951875099912	0.0998765998519957
108802	100	186	stimuli\nonmovNat\crystal\nmn_crystal01.jpg      	1	3	1	nmn_crystal01.jpg    	nonmovNat	5	crystal   	10	crystal01   	100	not_alive	0	still	0	natural 	1	n	0	0    	 	0.0	0	127.00198489986401	127.101877300069	0.0998924002051353
108952	100	187	stimuli\movArt\car\ma_car09.jpg                  	1	3	1	ma_car09.jpg         	movArt   	2	car       	5	car09       	58	not_alive	0	moves	1	artefact	0	n	0	0    	 	0.0	0	127.151975099929	127.25187999988	0.0999048999510705
109102	100	188	stimuli\plant\tree\plant_tree02.jpg              	1	3	1	plant_tree02.jpg     	plant    	6	tree      	35	tree02      	351	alive    	1	still	0	natural 	1	n	0	0    	 	0.0	0	127.301975099836	127.401886899956	0.0999118001200258
109252	100	189	stimuli\plant\tree\plant_tree08.jpg              	1	3	1	plant_tree08.jpg     	plant    	6	tree      	35	tree08      	357	alive    	1	still	0	natural 	1	n	0	0    	 	0.0	0	127.451971400063	127.551866099704	0.099894699640572
109402	100	190	stimuli\nonmovNat\shell\nmn_shell04.jpg          	1	3	1	nmn_shell04.jpg      	nonmovNat	5	shell     	32	shell04     	323	not_alive	0	still	0	natural 	1	n	0	0    	 	0.0	0	127.601975499652	127.701844499912	0.0998690002597868
109552	100	191	stimuli\nonmovNat\sand\nmn_sand03.jpg            	1	3	1	nmn_sand03.jpg       	nonmovNat	5	sand      	31	sand03      	312	not_alive	0	still	0	natural 	1	n	0	0    	 	0.0	0	127.751977100037	127.851877099834	0.0998999997973442
109702	100	192	stimuli\plant2\fern\plant_fern03.jpg             	1	3	1	plant_fern03.jpg     	plant2   	7	fern      	14	fern03      	142	alive    	1	still	0	natural 	1	n	0	0    	 	0.0	0	127.902000600006	128.001889499836	0.0998888998292386
109852	100	193	stimuli\plant2\fern\plant_fern07.jpg             	1	3	1	plant_fern07.jpg     	plant2   	7	fern      	14	fern07      	146	alive    	1	still	0	natural 	1	n	0	0    	 	0.0	0	128.051966699772	128.151855499949	0.0998888001777231
110002	100	194	stimuli\movArt\helicopter\ma_helicopter02.jpg    	1	3	1	ma_helicopter02.jpg  	movArt   	2	helicopter	19	helicopter02	191	not_alive	0	moves	1	artefact	0	n	0	0    	 	0.0	0	128.202044299804	128.301869399846	0.0998251000419259
110152	100	195	stimuli\animals2\lemur\animal_lemur04.jpg        	1	3	1	animal_lemur04.jpg   	animals2 	1	lemur     	23	lemur04     	233	alive    	1	moves	1	natural 	1	n	0	0    	 	0.0	0	128.351972099859	128.45186010003098	0.0998880001716315
110302	100	196	stimuli\plant2\clover\plant_clover06.jpg         	1	3	1	plant_clover06.jpg   	plant2   	7	clover    	9	clover06    	95	alive    	1	still	0	natural 	1	n	0	0    	 	0.0	0	128.501958499663	128.601861000061	0.099902500398457
110452	100	197	stimuli\animals\eagle\animal_eagle03.jpg         	1	3	1	animal_eagle03.jpg   	animals  	0	eagle     	13	eagle03     	132	alive    	1	moves	1	natural 	1	n	0	0    	 	0.0	0	128.651953599881	128.751870499924	0.0999169000424444
110602	100	198	stimuli\nonmovArt\bench\nma_bench04.jpg          	1	3	1	nma_bench04.jpg      	nonmovArt	4	bench     	1	bench04     	13	not_alive	0	still	0	artefact	0	n	0	0    	 	0.0	0	128.801949699875	128.90186819993	0.0999185000546276
110752	100	199	stimuli\plant2\lemontree\plant_lemontree04.jpg   	1	3	1	plant_lemontree04.jpg	plant2   	7	lemontree 	22	lemontree04 	223	alive    	1	still	0	natural 	1	n	0	0    	 	0.0	0	128.951939299703	129.051872199867	0.0999329001642763
110902	100	200	stimuli\movArt\bus\ma_bus05.jpg                  	1	3	1	ma_bus05.jpg         	movArt   	2	bus       	3	bus05       	34	not_alive	0	moves	1	artefact	0	n	0	0    	 	0.0	0	129.10194729967	129.201844600029	0.0998973003588616
111052	100	201	stimuli\nonmovNat\shell\nmn_shell08.jpg          	1	3	1	nmn_shell08.jpg      	nonmovNat	5	shell     	32	shell08     	327	not_alive	0	still	0	natural 	1	n	0	0    	 	0.0	0	129.25195689965	129.351841100026	0.0998842003755271
111202	100	202	stimuli\plant\flower\plant_flower08.jpg          	1	3	1	plant_flower08.jpg   	plant    	6	flower    	16	flower08    	167	alive    	1	still	0	natural 	1	n	0	0    	 	0.0	0	129.401950499974	129.501862499863	0.0999119998887181
111352	100	203	stimuli\nonmovNat\cliff\nmn_cliff01.jpg          	1	3	1	nmn_cliff01.jpg      	nonmovNat	5	cliff     	7	cliff01     	70	not_alive	0	still	0	natural 	1	n	0	0    	 	0.0	0	129.551948599983	129.651870499831	0.0999218998476862
111502	100	204	stimuli\animals\eagle\animal_eagle10.jpg         	1	3	1	animal_eagle10.jpg   	animals  	0	eagle     	13	eagle10     	139	alive    	1	moves	1	natural 	1	n	0	0    	 	0.0	0	129.701970600057	129.80186369968598	0.0998930996283888
111652	100	205	stimuli\animals2\pigeon\animal_pigeon06.jpg      	1	3	1	animal_pigeon06.jpg  	animals2 	1	pigeon    	28	pigeon06    	285	alive    	1	moves	1	natural 	1	n	0	0    	 	0.0	0	129.851929999888	129.951910399832	0.0999803999438882
111802	100	206	stimuli\animals2\whale\animal_whale03.jpg        	1	3	1	animal_whale03.jpg   	animals2 	1	whale     	39	whale03     	392	alive    	1	moves	1	natural 	1	n	0	0    	 	0.0	0	130.001965600066	130.10196279967198	0.0999971996061504
111952	100	207	stimuli\animals2\bee\animal_bee07.jpg            	1	3	1	animal_bee07.jpg     	animals2 	1	bee       	0	bee07       	6	alive    	1	moves	1	natural 	1	n	1	0    	 	0.0	0	130.152008799836	130.251879899763	0.0998710999265313
112102	100	208	stimuli\plant2\palmtree\plant_palmtree07.jpg     	1	3	1	plant_palmtree07.jpg 	plant2   	7	palmtree  	27	palmtree07  	276	alive    	1	still	0	natural 	1	n	0	0    	 	0.0	0	130.301956299692	130.40188149968202	0.0999251999892294
112252	100	209	stimuli\plant2\palmtree\plant_palmtree07.jpg     	1	3	1	plant_palmtree07.jpg 	plant2   	7	palmtree  	27	palmtree07  	276	alive    	1	still	0	natural 	1	n	0	1    	f	0.391949200071394	1	130.45197919989	130.551846299786	0.0998670998960733
112402	100	210	stimuli\movNat\waterfall\mn_waterfall08.jpg      	1	3	1	mn_waterfall08.jpg   	movNat   	3	waterfall 	37	waterfall08 	377	not_alive	0	moves	1	natural 	1	n	0	0    	 	0.0	0	130.601975899655	130.70187280001102	0.0998969003558158
112552	100	211	stimuli\movNat\waves\mn_waves02.jpg              	1	3	1	mn_waves02.jpg       	movNat   	3	waves     	38	waves02     	381	not_alive	0	moves	1	natural 	1	n	0	0    	 	0.0	0	130.75196920009301	130.851854499895	0.0998852998018264
112702	100	212	stimuli\movArt\train\ma_train04.jpg              	1	3	1	ma_train04.jpg       	movArt   	2	train     	34	train04     	343	not_alive	0	moves	1	artefact	0	n	0	0    	 	0.0	0	130.901972800028	131.001839499921	0.0998666998930275
112852	100	213	stimuli\movNat\fire\mn_fire08.jpg                	1	3	1	mn_fire08.jpg        	movNat   	3	fire      	15	fire08      	157	not_alive	0	moves	1	natural 	1	n	0	0    	 	0.0	0	131.051963299979	131.151857099961	0.09989379998296499
113002	100	214	stimuli\movNat\fire\mn_fire04.jpg                	1	3	1	mn_fire04.jpg        	movNat   	3	fire      	15	fire04      	153	not_alive	0	moves	1	natural 	1	n	0	0    	 	0.0	0	131.201935299672	131.301869399846	0.0999341001734137
113152	100	215	stimuli\nonmovNat\crystal\nmn_crystal05.jpg      	1	3	1	nmn_crystal05.jpg    	nonmovNat	5	crystal   	10	crystal05   	104	not_alive	0	still	0	natural 	1	n	0	0    	 	0.0	0	131.351938399952	131.451868699864	0.09993029991164802
113302	100	216	stimuli\animals2\bee\animal_bee01.jpg            	1	3	1	animal_bee01.jpg     	animals2 	1	bee       	0	bee01       	0	alive    	1	moves	1	natural 	1	n	1	0    	 	0.0	0	131.501968699973	131.601862799842	0.099894099868834
113452	100	217	stimuli\plant\vine\plant_vine02.jpg              	1	3	1	plant_vine02.jpg     	plant    	6	vine      	36	vine02      	361	alive    	1	still	0	natural 	1	n	0	0    	 	0.0	0	131.651964799967	131.751066399738	0.0991015997715294
113601	100	218	stimuli\plant\grass\plant_grass02.jpg            	1	3	1	plant_grass02.jpg    	plant    	6	grass     	17	grass02     	171	alive    	1	still	0	natural 	1	n	0	1    	f	0.391161999665201	1	131.801082700025	131.901079500094	0.0999968000687658
113751	100	219	stimuli\animals\dog\animal_dog05.jpg             	1	3	1	animal_dog05.jpg     	animals  	0	dog       	11	dog05       	114	alive    	1	moves	1	natural 	1	n	0	0    	 	0.0	0	131.951057800092	132.051044099964	0.0999862998723983
113901	100	220	stimuli\nonmovArt\clothespeg\nma_clothespeg10.jpg	1	3	1	nma_clothespeg10.jpg 	nonmovArt	4	clothespeg	8	clothespeg10	89	not_alive	0	still	0	artefact	0	n	0	0    	 	0.0	0	132.10104769980498	132.201048399787	0.10000069998204698
114051	100	221	stimuli\plant2\clover\plant_clover07.jpg         	1	3	1	plant_clover07.jpg   	plant2   	7	clover    	9	clover07    	96	alive    	1	still	0	natural 	1	n	0	0    	 	0.0	0	132.251055399887	132.35104219988	0.0999867999926209
114201	100	222	stimuli\plant\tree\plant_tree10.jpg              	1	3	1	plant_tree10.jpg     	plant    	6	tree      	35	tree10      	359	alive    	1	still	0	natural 	1	n	0	0    	 	0.0	0	132.401054699905	132.50103909988002	0.0999843999743461
114351	100	223	stimuli\movArt\bus\ma_bus09.jpg                  	1	3	1	ma_bus09.jpg         	movArt   	2	bus       	3	bus09       	38	not_alive	0	moves	1	artefact	0	n	0	0    	 	0.0	0	132.55105259968	132.651040199678	0.0999875999987125
114501	100	224	stimuli\plant2\moss\plant_moss10.jpg             	1	3	1	plant_moss10.jpg     	plant2   	7	moss      	25	moss10      	259	alive    	1	still	0	natural 	1	n	0	0    	 	0.0	0	132.701051299926	132.80104109970898	0.0999897997826337
114651	100	225	stimuli\plant2\moss\plant_moss08.jpg             	1	3	1	plant_moss08.jpg     	plant2   	7	moss      	25	moss08      	257	alive    	1	still	0	natural 	1	n	0	0    	 	0.0	0	132.851048099808	132.951031399891	0.0999833000823855
114801	100	226	stimuli\nonmovNat\cliff\nmn_cliff06.jpg          	1	3	1	nmn_cliff06.jpg      	nonmovNat	5	cliff     	7	cliff06     	75	not_alive	0	still	0	natural 	1	n	0	0    	 	0.0	0	133.001047299709	133.101035499945	0.0999882002361118
114951	100	227	stimuli\animals2\whale\animal_whale02.jpg        	1	3	1	animal_whale02.jpg   	animals2 	1	whale     	39	whale02     	391	alive    	1	moves	1	natural 	1	n	0	0    	 	0.0	0	133.151045099832	133.251033099834	0.0999880000017583
115101	100	228	stimuli\movArt\helicopter\ma_helicopter01.jpg    	1	3	1	ma_helicopter01.jpg  	movArt   	2	helicopter	19	helicopter01	190	not_alive	0	moves	1	artefact	0	n	0	0    	 	0.0	0	133.301042499952	133.401032600086	0.0999901001341641
115251	100	229	stimuli\animals2\whale\animal_whale09.jpg        	1	3	1	animal_whale09.jpg   	animals2 	1	whale     	39	whale09     	398	alive    	1	moves	1	natural 	1	n	0	0    	 	0.0	0	133.451044699643	133.551020399667	0.0999757000245154
115401	100	230	stimuli\animals\horse\animal_horse09.jpg         	1	3	1	animal_horse09.jpg   	animals  	0	horse     	20	horse09     	208	alive    	1	moves	1	natural 	1	n	0	0    	 	0.0	0	133.601037399843	133.701049400028	0.100012000184506
115551	100	231	stimuli\nonmovArt\bench\nma_bench01.jpg          	1	3	1	nma_bench01.jpg      	nonmovArt	4	bench     	1	bench01     	10	not_alive	0	still	0	artefact	0	n	0	0    	 	0.0	0	133.751037799753	133.85102789988701	0.0999901001341641
115701	100	232	stimuli\movArt\boat\ma_boat06.jpg                	1	3	1	ma_boat06.jpg        	movArt   	2	boat      	2	boat06      	25	not_alive	0	moves	1	artefact	0	n	0	0    	 	0.0	0	133.901036699768	134.001027599908	0.0999909001402556
115851	100	233	stimuli\nonmovNat\cliff\nmn_cliff07.jpg          	1	3	1	nmn_cliff07.jpg      	nonmovNat	5	cliff     	7	cliff07     	76	not_alive	0	still	0	natural 	1	n	0	0    	 	0.0	0	134.051034399774	134.151021800004	0.0999874002300202
116001	100	234	stimuli\animals2\pigeon\animal_pigeon10.jpg      	1	3	1	animal_pigeon10.jpg  	animals2 	1	pigeon    	28	pigeon10    	289	alive    	1	moves	1	natural 	1	n	0	0    	 	0.0	0	134.20103150000799	134.301019999664	0.0999884996563196
116151	100	235	stimuli\nonmovNat\rock\nmn_rock05.jpg            	1	3	1	nmn_rock05.jpg       	nonmovNat	5	rock      	30	rock05      	304	not_alive	0	still	0	natural 	1	n	0	0    	 	0.0	0	134.35102989990298	134.451021200046	0.0999913001433014
116301	100	236	stimuli\nonmovArt\mug\nma_mug03.jpg              	1	3	1	nma_mug03.jpg        	nonmovArt	4	mug       	26	mug03       	262	not_alive	0	still	0	artefact	0	n	0	0    	 	0.0	0	134.501028599683	134.60101739969102	0.0999888000078499
116451	100	237	stimuli\animals\dolphin\animal_dolphin07.jpg     	1	3	1	animal_dolphin07.jpg 	animals  	0	dolphin   	12	dolphin07   	126	alive    	1	moves	1	natural 	1	n	0	0    	 	0.0	0	134.65102660003998	134.751014299691	0.09998769965022801
116601	100	238	stimuli\movArt\boat\ma_boat07.jpg                	1	3	1	ma_boat07.jpg        	movArt   	2	boat      	2	boat07      	26	not_alive	0	moves	1	artefact	0	n	0	0    	 	0.0	0	134.801025299821	134.901014999952	0.0999897001311183
116751	100	239	stimuli\movNat\hotspring\mn_hotspring04.jpg      	1	3	1	mn_hotspring04.jpg   	movNat   	3	hotspring 	21	hotspring04 	213	not_alive	0	moves	1	natural 	1	n	0	0    	 	0.0	0	134.95102169970102	135.051012099721	0.0999904000200331
121851	100	240	stimuli\animals\dolphin\animal_dolphin07.jpg     	1	4	1	animal_dolphin07.jpg 	animals  	0	dolphin   	12	dolphin07   	126	alive    	1	moves	1	natural 	1	n	0	0    	 	0.0	0	140.05097789969298	140.150980299804	0.100002400111407
122001	100	241	stimuli\movArt\car\ma_car01.jpg                  	1	4	1	ma_car01.jpg         	movArt   	2	car       	5	car01       	50	not_alive	0	moves	1	artefact	0	n	0	0    	 	0.0	0	140.200972799677	140.300959799904	0.0999870002269744
122151	100	242	stimuli\animals2\pigeon\animal_pigeon07.jpg      	1	4	1	animal_pigeon07.jpg  	animals2 	1	pigeon    	28	pigeon07    	286	alive    	1	moves	1	natural 	1	n	0	0    	 	0.0	0	140.350968699902	140.450958800036	0.0999901001341641
122301	100	243	stimuli\movNat\river\mn_river09.jpg              	1	4	1	mn_river09.jpg       	movNat   	3	river     	29	river09     	298	not_alive	0	moves	1	natural 	1	n	0	0    	 	0.0	0	140.500968199689	140.600956999697	0.0999888000078499
122451	100	244	stimuli\movNat\hotspring\mn_hotspring08.jpg      	1	4	1	mn_hotspring08.jpg   	movNat   	3	hotspring 	21	hotspring08 	217	not_alive	0	moves	1	natural 	1	n	0	0    	 	0.0	0	140.65096269967	140.750953199808	0.0999905001372098
122601	100	245	stimuli\plant2\moss\plant_moss04.jpg             	1	4	1	plant_moss04.jpg     	plant2   	7	moss      	25	moss04      	253	alive    	1	still	0	natural 	1	n	0	0    	 	0.0	0	140.800965399947	140.900953599717	0.0999881997704506
122751	100	246	stimuli\animals\dog\animal_dog09.jpg             	1	4	1	animal_dog09.jpg     	animals  	0	dog       	11	dog09       	118	alive    	1	moves	1	natural 	1	n	0	0    	 	0.0	0	140.95096169970898	141.050949200056	0.099987500347197
122901	100	247	stimuli\nonmovArt\mug\nma_mug03.jpg              	1	4	1	nma_mug03.jpg        	nonmovArt	4	mug       	26	mug03       	262	not_alive	0	still	0	artefact	0	n	0	0    	 	0.0	0	141.100960999727	141.200950699858	0.0999897001311183
123051	100	248	stimuli\nonmovNat\sand\nmn_sand02.jpg            	1	4	1	nmn_sand02.jpg       	nonmovNat	5	sand      	31	sand02      	311	not_alive	0	still	0	natural 	1	n	0	0    	 	0.0	0	141.250957199838	141.350947099738	0.0999898998998105
123201	100	249	stimuli\plant2\lemontree\plant_lemontree08.jpg   	1	4	1	plant_lemontree08.jpg	plant2   	7	lemontree 	22	lemontree08 	227	alive    	1	still	0	natural 	1	n	0	0    	 	0.0	0	141.400957399979	141.500944499858	0.0999870998784899
123351	100	250	stimuli\plant\flower\plant_flower02.jpg          	1	4	1	plant_flower02.jpg   	plant    	6	flower    	16	flower02    	161	alive    	1	still	0	natural 	1	n	0	0    	 	0.0	0	141.550957500003	141.650942499749	0.0999849997460842
123501	100	251	stimuli\plant2\fern\plant_fern05.jpg             	1	4	1	plant_fern05.jpg     	plant2   	7	fern      	14	fern05      	144	alive    	1	still	0	natural 	1	n	0	0    	 	0.0	0	141.700955200009	141.800941499881	0.0999862998723983
123651	100	252	stimuli\movNat\fire\mn_fire10.jpg                	1	4	1	mn_fire10.jpg        	movNat   	3	fire      	15	fire10      	159	not_alive	0	moves	1	natural 	1	n	1	0    	 	0.0	0	141.850951300003	141.95094130002	0.0999900000169873
123801	100	253	stimuli\nonmovArt\clothespeg\nma_clothespeg03.jpg	1	4	1	nma_clothespeg03.jpg 	nonmovArt	4	clothespeg	8	clothespeg03	82	not_alive	0	still	0	artefact	0	n	0	0    	 	0.0	0	142.00095380004498	142.100939599797	0.0999857997521758
123951	100	254	stimuli\plant2\lemontree\plant_lemontree01.jpg   	1	4	1	plant_lemontree01.jpg	plant2   	7	lemontree 	22	lemontree01 	220	alive    	1	still	0	natural 	1	n	0	1    	f	0.391977999825031	1	142.150948700029	142.250937299803	0.0999885997734964
124101	100	255	stimuli\movArt\boat\ma_boat05.jpg                	1	4	1	ma_boat05.jpg        	movArt   	2	boat      	2	boat05      	24	not_alive	0	moves	1	artefact	0	n	0	0    	 	0.0	0	142.300944999792	142.400936800055	0.099991800263524
124251	100	256	stimuli\plant2\moss\plant_moss05.jpg             	1	4	1	plant_moss05.jpg     	plant2   	7	moss      	25	moss05      	254	alive    	1	still	0	natural 	1	n	0	0    	 	0.0	0	142.450946500059	142.550932799932	0.0999862998723983
124401	100	257	stimuli\nonmovArt\mug\nma_mug01.jpg              	1	4	1	nma_mug01.jpg        	nonmovArt	4	mug       	26	mug01       	260	not_alive	0	still	0	artefact	0	n	0	0    	 	0.0	0	142.600941400044	142.70093180006398	0.0999904000200331
124551	100	258	stimuli\movNat\waves\mn_waves06.jpg              	1	4	1	mn_waves06.jpg       	movNat   	3	waves     	38	waves06     	385	not_alive	0	moves	1	natural 	1	n	0	0    	 	0.0	0	142.750940499827	142.85092839971202	0.0999878998845815
124701	100	259	stimuli\plant2\clover\plant_clover01.jpg         	1	4	1	plant_clover01.jpg   	plant2   	7	clover    	9	clover01    	90	alive    	1	still	0	natural 	1	n	0	0    	 	0.0	0	142.900938000064	143.00092920008998	0.0999912000261247
124851	100	260	stimuli\nonmovNat\rock\nmn_rock02.jpg            	1	4	1	nmn_rock02.jpg       	nonmovNat	5	rock      	30	rock02      	301	not_alive	0	still	0	natural 	1	n	0	0    	 	0.0	0	143.050950099714	143.15093849971902	0.0999884000048041
125001	100	261	stimuli\nonmovNat\crystal\nmn_crystal08.jpg      	1	4	1	nmn_crystal08.jpg    	nonmovNat	5	crystal   	10	crystal08   	107	not_alive	0	still	0	natural 	1	n	0	0    	 	0.0	0	143.200935499743	143.301694199909	0.10075870016589802
125152	100	262	stimuli\plant\flower\plant_flower05.jpg          	1	4	1	plant_flower05.jpg   	plant    	6	flower    	16	flower05    	164	alive    	1	still	0	natural 	1	n	0	0    	 	0.0	0	143.351787299849	143.451694499701	0.0999071998521685
125302	100	263	stimuli\nonmovArt\headphones\nma_headphones06.jpg	1	4	1	nma_headphones06.jpg 	nonmovArt	4	headphones	18	headphones06	185	not_alive	0	still	0	artefact	0	n	0	0    	 	0.0	0	143.501774999779	143.60169370006798	0.0999187002889812
125452	100	264	stimuli\animals\dog\animal_dog02.jpg             	1	4	1	animal_dog02.jpg     	animals  	0	dog       	11	dog02       	111	alive    	1	moves	1	natural 	1	n	0	0    	 	0.0	0	143.65180569980302	143.751851399895	0.10004570009186901
125602	100	265	stimuli\nonmovNat\crystal\nmn_crystal04.jpg      	1	4	1	nmn_crystal04.jpg    	nonmovNat	5	crystal   	10	crystal04   	103	not_alive	0	still	0	natural 	1	n	0	0    	 	0.0	0	143.801788599696	143.901695400011	0.099906800314784
125752	100	266	stimuli\animals\dog\animal_dog03.jpg             	1	4	1	animal_dog03.jpg     	animals  	0	dog       	11	dog03       	112	alive    	1	moves	1	natural 	1	n	0	0    	 	0.0	0	143.951772099826	144.051684599835	0.0999125000089407
125902	100	267	stimuli\nonmovNat\crystal\nmn_crystal08.jpg      	1	4	1	nmn_crystal08.jpg    	nonmovNat	5	crystal   	10	crystal08   	107	not_alive	0	still	0	natural 	1	n	0	0    	 	0.0	0	144.101784099825	144.201681499835	0.0998974000103771
126052	100	268	stimuli\plant2\clover\plant_clover03.jpg         	1	4	1	plant_clover03.jpg   	plant2   	7	clover    	9	clover03    	92	alive    	1	still	0	natural 	1	n	0	0    	 	0.0	0	144.251769300085	144.351683599874	0.0999142997898161
126202	100	269	stimuli\plant2\clover\plant_clover10.jpg         	1	4	1	plant_clover10.jpg   	plant2   	7	clover    	9	clover10    	99	alive    	1	still	0	natural 	1	n	0	0    	 	0.0	0	144.401774900034	144.501676599961	0.0999016999267041
126352	100	270	stimuli\plant\vine\plant_vine10.jpg              	1	4	1	plant_vine10.jpg     	plant    	6	vine      	36	vine10      	369	alive    	1	still	0	natural 	1	n	0	0    	 	0.0	0	144.551777499728	144.65167000005	0.0998925003223121
126502	100	271	stimuli\movArt\helicopter\ma_helicopter10.jpg    	1	4	1	ma_helicopter10.jpg  	movArt   	2	helicopter	19	helicopter10	199	not_alive	0	moves	1	artefact	0	n	0	0    	 	0.0	0	144.701777999755	144.80166719993602	0.0998892001807689
126652	100	272	stimuli\movArt\helicopter\ma_helicopter08.jpg    	1	4	1	ma_helicopter08.jpg  	movArt   	2	helicopter	19	helicopter08	197	not_alive	0	moves	1	artefact	0	n	0	0    	 	0.0	0	144.851770999841	144.951531399973	0.0997604001313448
126802	100	273	stimuli\animals2\tiger\animal_tiger04.jpg        	1	4	1	animal_tiger04.jpg   	animals2 	1	tiger     	33	tiger04     	333	alive    	1	moves	1	natural 	1	n	0	0    	 	0.0	0	145.001797799952	145.10170789994302	0.0999100999906659
126952	100	274	stimuli\movArt\bus\ma_bus08.jpg                  	1	4	1	ma_bus08.jpg         	movArt   	2	bus       	3	bus08       	37	not_alive	0	moves	1	artefact	0	n	0	0    	 	0.0	0	145.151780199725	145.251701199915	0.0999210001900792
127102	100	275	stimuli\plant\vine\plant_vine03.jpg              	1	4	1	plant_vine03.jpg     	plant    	6	vine      	36	vine03      	362	alive    	1	still	0	natural 	1	n	0	0    	 	0.0	0	145.301783599891	145.401749399956	0.0999658000655472
127252	100	276	stimuli\nonmovNat\shell\nmn_shell03.jpg          	1	4	1	nmn_shell03.jpg      	nonmovNat	5	shell     	32	shell03     	322	not_alive	0	still	0	natural 	1	n	0	0    	 	0.0	0	145.45178300002598	145.551753100008	0.0999700999818742
127402	100	277	stimuli\plant2\palmtree\plant_palmtree06.jpg     	1	4	1	plant_palmtree06.jpg 	plant2   	7	palmtree  	27	palmtree06  	275	alive    	1	still	0	natural 	1	n	0	0    	 	0.0	0	145.60188829991998	145.701664499939	0.0997762000188231
127552	100	278	stimuli\movArt\boat\ma_boat06.jpg                	1	4	1	ma_boat06.jpg        	movArt   	2	boat      	2	boat06      	25	not_alive	0	moves	1	artefact	0	n	0	0    	 	0.0	0	145.751791500021	145.85168959991998	0.09989809989929199
127702	100	279	stimuli\nonmovNat\rock\nmn_rock02.jpg            	1	4	1	nmn_rock02.jpg       	nonmovNat	5	rock      	30	rock02      	301	not_alive	0	still	0	natural 	1	n	0	0    	 	0.0	0	145.901776799932	146.001706399955	0.0999296000227332
127852	100	280	stimuli\movArt\train\ma_train10.jpg              	1	4	1	ma_train10.jpg       	movArt   	2	train     	34	train10     	349	not_alive	0	moves	1	artefact	0	n	0	0    	 	0.0	0	146.051771899685	146.15168929984802	0.099917400162667
128002	100	281	stimuli\plant\grass\plant_grass03.jpg            	1	4	1	plant_grass03.jpg    	plant    	6	grass     	17	grass03     	172	alive    	1	still	0	natural 	1	n	0	0    	 	0.0	0	146.201779399998	146.30168680008498	0.0999074000865221
128152	100	282	stimuli\nonmovArt\lock\nma_lock09.jpg            	1	4	1	nma_lock09.jpg       	nonmovArt	4	lock      	24	lock09      	248	not_alive	0	still	0	artefact	0	n	0	0    	 	0.0	0	146.351789299864	146.451660600025	0.0998713001608848
128302	100	283	stimuli\movNat\hotspring\mn_hotspring07.jpg      	1	4	1	mn_hotspring07.jpg   	movNat   	3	hotspring 	21	hotspring07 	216	not_alive	0	moves	1	natural 	1	n	0	1    	f	0.0	0	146.50176139967502	146.601678699721	0.0999173000454902
128452	100	284	stimuli\nonmovArt\lock\nma_lock01.jpg            	1	4	1	nma_lock01.jpg       	nonmovArt	4	lock      	24	lock01      	240	not_alive	0	still	0	artefact	0	n	0	0    	 	0.0	0	146.651782799978	146.751645700075	0.0998629000969231
128602	100	285	stimuli\plant2\moss\plant_moss04.jpg             	1	4	1	plant_moss04.jpg     	plant2   	7	moss      	25	moss04      	253	alive    	1	still	0	natural 	1	n	0	0    	 	0.0	0	146.801788399927	146.901669600047	0.09988120011985302
128752	100	286	stimuli\animals2\tiger\animal_tiger05.jpg        	1	4	1	animal_tiger05.jpg   	animals2 	1	tiger     	33	tiger05     	334	alive    	1	moves	1	natural 	1	n	0	0    	 	0.0	0	146.951780600008	147.051688599866	0.0999079998582601
128902	100	287	stimuli\nonmovArt\bench\nma_bench04.jpg          	1	4	1	nma_bench04.jpg      	nonmovArt	4	bench     	1	bench04     	13	not_alive	0	still	0	artefact	0	n	1	0    	 	0.0	0	147.101779500023	147.201698999852	0.0999194998294115
129052	100	288	stimuli\animals\horse\animal_horse06.jpg         	1	4	1	animal_horse06.jpg   	animals  	0	horse     	20	horse06     	205	alive    	1	moves	1	natural 	1	n	0	0    	 	0.0	0	147.2517471998	147.35175650008	0.10000930028036199
129202	100	289	stimuli\nonmovArt\clothespeg\nma_clothespeg10.jpg	1	4	1	nma_clothespeg10.jpg 	nonmovArt	4	clothespeg	8	clothespeg10	89	not_alive	0	still	0	artefact	0	n	0	0    	 	0.0	0	147.40182559983802	147.501661299728	0.0998356998898089
129352	100	290	stimuli\animals\dolphin\animal_dolphin06.jpg     	1	4	1	animal_dolphin06.jpg 	animals  	0	dolphin   	12	dolphin06   	125	alive    	1	moves	1	natural 	1	n	0	0    	 	0.0	0	147.55176209984302	147.651650500018	0.0998884001746773
129502	100	291	stimuli\movArt\boat\ma_boat03.jpg                	1	4	1	ma_boat03.jpg        	movArt   	2	boat      	2	boat03      	22	not_alive	0	moves	1	artefact	0	n	0	0    	 	0.0	0	147.701747999992	147.801682800055	0.0999348000623285
129652	100	292	stimuli\movArt\bus\ma_bus09.jpg                  	1	4	1	ma_bus09.jpg         	movArt   	2	bus       	3	bus09       	38	not_alive	0	moves	1	artefact	0	n	0	0    	 	0.0	0	147.851772800088	147.951645799912	0.0998729998245835
129802	100	293	stimuli\nonmovNat\shell\nmn_shell02.jpg          	1	4	1	nmn_shell02.jpg      	nonmovNat	5	shell     	32	shell02     	321	not_alive	0	still	0	natural 	1	n	0	0    	 	0.0	0	148.001745299902	148.101669099648	0.0999237997457385
129952	100	294	stimuli\movArt\car\ma_car10.jpg                  	1	4	1	ma_car10.jpg         	movArt   	2	car       	5	car10       	59	not_alive	0	moves	1	artefact	0	n	0	0    	 	0.0	0	148.15176589973302	148.251675199717	0.0999092999845743
130102	100	295	stimuli\animals2\pigeon\animal_pigeon07.jpg      	1	4	1	animal_pigeon07.jpg  	animals2 	1	pigeon    	28	pigeon07    	286	alive    	1	moves	1	natural 	1	n	0	0    	 	0.0	0	148.301770299673	148.401665200014	0.0998949003405869
130252	100	296	stimuli\nonmovArt\headphones\nma_headphones01.jpg	1	4	1	nma_headphones01.jpg 	nonmovArt	4	headphones	18	headphones01	180	not_alive	0	still	0	artefact	0	n	0	0    	 	0.0	0	148.45176040008698	148.551666799933	0.0999063998460769
130402	100	297	stimuli\plant2\lemontree\plant_lemontree02.jpg   	1	4	1	plant_lemontree02.jpg	plant2   	7	lemontree 	22	lemontree02 	221	alive    	1	still	0	natural 	1	n	0	0    	 	0.0	0	148.60173959983499	148.701663000043	0.099923400208354
130552	100	298	stimuli\animals\eagle\animal_eagle08.jpg         	1	4	1	animal_eagle08.jpg   	animals  	0	eagle     	13	eagle08     	137	alive    	1	moves	1	natural 	1	n	0	0    	 	0.0	0	148.751763499808	148.851657199673	0.0998936998657882
130702	100	299	stimuli\animals2\whale\animal_whale06.jpg        	1	4	1	animal_whale06.jpg   	animals2 	1	whale     	39	whale06     	395	alive    	1	moves	1	natural 	1	n	0	0    	 	0.0	0	148.901747900061	149.001680099871	0.0999321998097002
130852	100	300	stimuli\animals\horse\animal_horse01.jpg         	1	4	1	animal_horse01.jpg   	animals  	0	horse     	20	horse01     	200	alive    	1	moves	1	natural 	1	n	0	0    	 	0.0	0	149.051809399854	149.15178099973102	0.0999715998768806
131002	100	301	stimuli\movNat\river\mn_river03.jpg              	1	4	1	mn_river03.jpg       	movNat   	3	river     	29	river03     	292	not_alive	0	moves	1	natural 	1	n	0	0    	 	0.0	0	149.201755299699	149.30166939972	0.0999141000211238
131152	100	302	stimuli\nonmovArt\bench\nma_bench04.jpg          	1	4	1	nma_bench04.jpg      	nonmovArt	4	bench     	1	bench04     	13	not_alive	0	still	0	artefact	0	n	0	0    	 	0.0	0	149.35176089964799	149.451626399998	0.0998655003495514
131302	100	303	stimuli\animals2\whale\animal_whale04.jpg        	1	4	1	animal_whale04.jpg   	animals2 	1	whale     	39	whale04     	393	alive    	1	moves	1	natural 	1	n	0	0    	 	0.0	0	149.501753899734	149.60165590001301	0.0999020002782344
131452	100	304	stimuli\nonmovNat\rock\nmn_rock06.jpg            	1	4	1	nmn_rock06.jpg       	nonmovNat	5	rock      	30	rock06      	305	not_alive	0	still	0	natural 	1	n	0	0    	 	0.0	0	149.651742099784	149.751701799687	0.0999596999026835
131602	100	305	stimuli\movArt\car\ma_car06.jpg                  	1	4	1	ma_car06.jpg         	movArt   	2	car       	5	car06       	55	not_alive	0	moves	1	artefact	0	n	0	0    	 	0.0	0	149.801727700047	149.901625500061	0.0998978000134229
131752	100	306	stimuli\nonmovNat\cliff\nmn_cliff02.jpg          	1	4	1	nmn_cliff02.jpg      	nonmovNat	5	cliff     	7	cliff02     	71	not_alive	0	still	0	natural 	1	n	0	0    	 	0.0	0	149.951737599913	150.05162539985	0.09988779993727802
131902	100	307	stimuli\animals\eagle\animal_eagle08.jpg         	1	4	1	animal_eagle08.jpg   	animals  	0	eagle     	13	eagle08     	137	alive    	1	moves	1	natural 	1	n	0	0    	 	0.0	0	150.101739299949	150.20164069998998	0.0999014000408351
132052	100	308	stimuli\nonmovArt\lock\nma_lock08.jpg            	1	4	1	nma_lock08.jpg       	nonmovArt	4	lock      	24	lock08      	247	not_alive	0	still	0	artefact	0	n	0	0    	 	0.0	0	150.25172139983601	150.351649499964	0.0999281001277268
132202	100	309	stimuli\nonmovNat\shell\nmn_shell10.jpg          	1	4	1	nmn_shell10.jpg      	nonmovNat	5	shell     	32	shell10     	329	not_alive	0	still	0	natural 	1	n	0	0    	 	0.0	0	150.401742700022	150.50160779990298	0.0998650998808443
132352	100	310	stimuli\animals\eagle\animal_eagle10.jpg         	1	4	1	animal_eagle10.jpg   	animals  	0	eagle     	13	eagle10     	139	alive    	1	moves	1	natural 	1	n	0	0    	 	0.0	0	150.551723999903	150.651646299753	0.09992229985073199
132502	100	311	stimuli\movNat\hotspring\mn_hotspring02.jpg      	1	4	1	mn_hotspring02.jpg   	movNat   	3	hotspring 	21	hotspring02 	211	not_alive	0	moves	1	natural 	1	n	0	0    	 	0.0	0	150.701729599852	150.801637199707	0.0999075998552143
132652	100	312	stimuli\nonmovArt\mug\nma_mug10.jpg              	1	4	1	nma_mug10.jpg        	nonmovArt	4	mug       	26	mug10       	269	not_alive	0	still	0	artefact	0	n	0	0    	 	0.0	0	150.851788899861	150.951711599715	0.0999226998537778
132802	100	313	stimuli\animals2\bee\animal_bee05.jpg            	1	4	1	animal_bee05.jpg     	animals2 	1	bee       	0	bee05       	4	alive    	1	moves	1	natural 	1	n	0	0    	 	0.0	0	151.001702999696	151.101633799728	0.0999308000318706
132952	100	314	stimuli\animals2\tiger\animal_tiger08.jpg        	1	4	1	animal_tiger08.jpg   	animals2 	1	tiger     	33	tiger08     	337	alive    	1	moves	1	natural 	1	n	0	0    	 	0.0	0	151.15172619978	151.251623299904	0.0998971001245081
133102	100	315	stimuli\animals\cat\animal_cat07.jpg             	1	4	1	animal_cat07.jpg     	animals  	0	cat       	6	cat07       	66	alive    	1	moves	1	natural 	1	n	0	0    	 	0.0	0	151.30172189977	151.401633299887	0.09991140011698
133252	100	316	stimuli\movNat\waves\mn_waves01.jpg              	1	4	1	mn_waves01.jpg       	movNat   	3	waves     	38	waves01     	380	not_alive	0	moves	1	natural 	1	n	0	0    	 	0.0	0	151.45170079963302	151.55162979988398	0.0999290002509951
133402	100	317	stimuli\movNat\waterfall\mn_waterfall03.jpg      	1	4	1	mn_waterfall03.jpg   	movNat   	3	waterfall 	37	waterfall03 	372	not_alive	0	moves	1	natural 	1	n	0	0    	 	0.0	0	151.601693199947	151.701593399979	0.0999002000316977
133552	100	318	stimuli\animals2\lemur\animal_lemur01.jpg        	1	4	1	animal_lemur01.jpg   	animals2 	1	lemur     	23	lemur01     	230	alive    	1	moves	1	natural 	1	n	0	0    	 	0.0	0	151.751700699795	151.85160079971	0.0999000999145209
133702	100	319	stimuli\plant2\fern\plant_fern02.jpg             	1	4	1	plant_fern02.jpg     	plant2   	7	fern      	14	fern02      	141	alive    	1	still	0	natural 	1	n	0	0    	 	0.0	0	151.90171770006398	152.001623499673	0.0999057996086776
143035	100	320	stimuli\movNat\river\mn_river06.jpg              	1	5	1	mn_river06.jpg       	movNat   	3	river     	29	river06     	295	not_alive	0	moves	1	natural 	1	n	0	0    	 	0.0	0	161.234920899849	161.334859299939	0.0999384000897407
143185	100	321	stimuli\plant\tree\plant_tree04.jpg              	1	5	1	plant_tree04.jpg     	plant    	6	tree      	35	tree04      	353	alive    	1	still	0	natural 	1	n	0	0    	 	0.0	0	161.384910299908	161.484817699995	0.0999074000865221
143335	100	322	stimuli\movArt\train\ma_train06.jpg              	1	5	1	ma_train06.jpg       	movArt   	2	train     	34	train06     	345	not_alive	0	moves	1	artefact	0	n	0	0    	 	0.0	0	161.534906199668	161.634803799912	0.0998976002447307
143485	100	323	stimuli\nonmovNat\sand\nmn_sand05.jpg            	1	5	1	nmn_sand05.jpg       	nonmovNat	5	sand      	31	sand05      	314	not_alive	0	still	0	natural 	1	n	0	0    	 	0.0	0	161.684902699664	161.78480869997298	0.0999060003086924
143635	100	324	stimuli\plant\cactus\plant_cactus01.jpg          	1	5	1	plant_cactus01.jpg   	plant    	6	cactus    	4	cactus01    	40	alive    	1	still	0	natural 	1	n	0	0    	 	0.0	0	161.83489790000002	161.934799799696	0.0999018996953964
143785	100	325	stimuli\nonmovNat\cliff\nmn_cliff03.jpg          	1	5	1	nmn_cliff03.jpg      	nonmovNat	5	cliff     	7	cliff03     	72	not_alive	0	still	0	natural 	1	n	0	0    	 	0.0	0	161.98492419999099	162.084824699908	0.0999004999175667
143935	100	326	stimuli\movNat\waterfall\mn_waterfall04.jpg      	1	5	1	mn_waterfall04.jpg   	movNat   	3	waterfall 	37	waterfall04 	373	not_alive	0	moves	1	natural 	1	n	0	0    	 	0.0	0	162.134900999721	162.234925299883	0.10002430016174901
144085	100	327	stimuli\plant\cactus\plant_cactus02.jpg          	1	5	1	plant_cactus02.jpg   	plant    	6	cactus    	4	cactus02    	41	alive    	1	still	0	natural 	1	n	0	0    	 	0.0	0	162.28488969989098	162.384806399699	0.0999166998080909
144235	100	328	stimuli\plant2\fern\plant_fern05.jpg             	1	5	1	plant_fern05.jpg     	plant2   	7	fern      	14	fern05      	144	alive    	1	still	0	natural 	1	n	0	0    	 	0.0	0	162.43489599973	162.5347990999	0.0999031001701951
144385	100	329	stimuli\animals\cat\animal_cat01.jpg             	1	5	1	animal_cat01.jpg     	animals  	0	cat       	6	cat01       	60	alive    	1	moves	1	natural 	1	n	0	0    	 	0.0	0	162.584893299732	162.684796299785	0.0999030000530183
144535	100	330	stimuli\animals2\whale\animal_whale06.jpg        	1	5	1	animal_whale06.jpg   	animals2 	1	whale     	39	whale06     	395	alive    	1	moves	1	natural 	1	n	0	0    	 	0.0	0	162.73489709990102	162.834809999913	0.0999129000119865
144685	100	331	stimuli\movNat\fire\mn_fire09.jpg                	1	5	1	mn_fire09.jpg        	movNat   	3	fire      	15	fire09      	158	not_alive	0	moves	1	natural 	1	n	0	0    	 	0.0	0	162.884903399739	162.984802199993	0.0998988002538681
144835	100	332	stimuli\animals\cat\animal_cat06.jpg             	1	5	1	animal_cat06.jpg     	animals  	0	cat       	6	cat06       	65	alive    	1	moves	1	natural 	1	n	0	0    	 	0.0	0	163.034901400097	163.134831700008	0.09993029991164802
144985	100	333	stimuli\nonmovNat\sand\nmn_sand07.jpg            	1	5	1	nmn_sand07.jpg       	nonmovNat	5	sand      	31	sand07      	316	not_alive	0	still	0	natural 	1	n	0	0    	 	0.0	0	163.184900399763	163.284827699885	0.0999273001216352
145135	100	334	stimuli\plant2\palmtree\plant_palmtree08.jpg     	1	5	1	plant_palmtree08.jpg 	plant2   	7	palmtree  	27	palmtree08  	277	alive    	1	still	0	natural 	1	n	0	0    	 	0.0	0	163.334925499745	163.434818999842	0.0998935000970959
145285	100	335	stimuli\animals2\bee\animal_bee05.jpg            	1	5	1	animal_bee05.jpg     	animals2 	1	bee       	0	bee05       	4	alive    	1	moves	1	natural 	1	n	0	0    	 	0.0	0	163.484897699673	163.584824099671	0.0999263999983668
145435	100	336	stimuli\plant\cactus\plant_cactus04.jpg          	1	5	1	plant_cactus04.jpg   	plant    	6	cactus    	4	cactus04    	43	alive    	1	still	0	natural 	1	n	0	0    	 	0.0	0	163.63490269985002	163.734822999686	0.0999202998355031
145585	100	337	stimuli\nonmovArt\bench\nma_bench06.jpg          	1	5	1	nma_bench06.jpg      	nonmovArt	4	bench     	1	bench06     	15	not_alive	0	still	0	artefact	0	n	0	0    	 	0.0	0	163.78491370007401	163.884818600025	0.0999048999510705
145735	100	338	stimuli\plant\grass\plant_grass02.jpg            	1	5	1	plant_grass02.jpg    	plant    	6	grass     	17	grass02     	171	alive    	1	still	0	natural 	1	n	0	0    	 	0.0	0	163.93493939982702	164.034874799661	0.0999353998340666
145885	100	339	stimuli\plant2\palmtree\plant_palmtree06.jpg     	1	5	1	plant_palmtree06.jpg 	plant2   	7	palmtree  	27	palmtree06  	275	alive    	1	still	0	natural 	1	n	0	0    	 	0.0	0	164.08497429965098	164.184819099959	0.0998448003083467
146035	100	340	stimuli\movArt\helicopter\ma_helicopter04.jpg    	1	5	1	ma_helicopter04.jpg  	movArt   	2	helicopter	19	helicopter04	193	not_alive	0	moves	1	artefact	0	n	1	0    	 	0.0	0	164.23485830007098	164.334796399809	0.0999380997382104
146185	100	341	stimuli\plant\tree\plant_tree05.jpg              	1	5	1	plant_tree05.jpg     	plant    	6	tree      	35	tree05      	354	alive    	1	still	0	natural 	1	n	0	0    	 	0.0	0	164.384912199806	164.48481100006	0.0998988002538681
146335	100	342	stimuli\plant\flower\plant_flower09.jpg          	1	5	1	plant_flower09.jpg   	plant    	6	flower    	16	flower09    	168	alive    	1	still	0	natural 	1	n	0	1    	f	0.39200299978256203	1	164.534883100074	164.634818099905	0.0999349998310208
146485	100	343	stimuli\animals2\bee\animal_bee07.jpg            	1	5	1	animal_bee07.jpg     	animals2 	1	bee       	0	bee07       	6	alive    	1	moves	1	natural 	1	n	0	0    	 	0.0	0	164.684882699978	164.784775800072	0.0998931000940501
146635	100	344	stimuli\nonmovArt\headphones\nma_headphones04.jpg	1	5	1	nma_headphones04.jpg 	nonmovArt	4	headphones	18	headphones04	183	not_alive	0	still	0	artefact	0	n	0	0    	 	0.0	0	164.83491049986299	164.934801399708	0.0998908998444676
146785	100	345	stimuli\movNat\fire\mn_fire06.jpg                	1	5	1	mn_fire06.jpg        	movNat   	3	fire      	15	fire06      	155	not_alive	0	moves	1	natural 	1	n	0	0    	 	0.0	0	164.984901200049	165.084778300021	0.0998770999722182
146935	100	346	stimuli\nonmovArt\clothespeg\nma_clothespeg07.jpg	1	5	1	nma_clothespeg07.jpg 	nonmovArt	4	clothespeg	8	clothespeg07	86	not_alive	0	still	0	artefact	0	n	0	0    	 	0.0	0	165.134889299981	165.234774400014	0.0998851000331342
147085	100	347	stimuli\animals2\lemur\animal_lemur02.jpg        	1	5	1	animal_lemur02.jpg   	animals2 	1	lemur     	23	lemur02     	231	alive    	1	moves	1	natural 	1	n	0	0    	 	0.0	0	165.284910999704	165.384791899938	0.09988090023398401
147235	100	348	stimuli\animals2\lemur\animal_lemur01.jpg        	1	5	1	animal_lemur01.jpg   	animals2 	1	lemur     	23	lemur01     	230	alive    	1	moves	1	natural 	1	n	0	0    	 	0.0	0	165.434892700054	165.534810299985	0.0999175999313592
147385	100	349	stimuli\movArt\bus\ma_bus07.jpg                  	1	5	1	ma_bus07.jpg         	movArt   	2	bus       	3	bus07       	36	not_alive	0	moves	1	artefact	0	n	0	0    	 	0.0	0	165.584895299748	165.684787999839	0.0998927000910043
147535	100	350	stimuli\plant\vine\plant_vine02.jpg              	1	5	1	plant_vine02.jpg     	plant    	6	vine      	36	vine02      	361	alive    	1	still	0	natural 	1	n	0	0    	 	0.0	0	165.734922700096	165.83489469997602	0.0999719998799264
147685	100	351	stimuli\plant\tree\plant_tree07.jpg              	1	5	1	plant_tree07.jpg     	plant    	6	tree      	35	tree07      	356	alive    	1	still	0	natural 	1	n	0	0    	 	0.0	0	165.884964199737	165.984793399926	0.0998292001895606
147835	100	352	stimuli\movNat\waves\mn_waves09.jpg              	1	5	1	mn_waves09.jpg       	movNat   	3	waves     	38	waves09     	388	not_alive	0	moves	1	natural 	1	n	0	0    	 	0.0	0	166.03489660006	166.134771799669	0.0998751996085047
147985	100	353	stimuli\movArt\train\ma_train02.jpg              	1	5	1	ma_train02.jpg       	movArt   	2	train     	34	train02     	341	not_alive	0	moves	1	artefact	0	n	0	0    	 	0.0	0	166.184893100057	166.284743200056	0.0998500999994576
148135	100	354	stimuli\animals\horse\animal_horse03.jpg         	1	5	1	animal_horse03.jpg   	animals  	0	horse     	20	horse03     	202	alive    	1	moves	1	natural 	1	n	0	0    	 	0.0	0	166.33488800004102	166.43479259964099	0.0999045995995402
148285	100	355	stimuli\movNat\waterfall\mn_waterfall04.jpg      	1	5	1	mn_waterfall04.jpg   	movNat   	3	waterfall 	37	waterfall04 	373	not_alive	0	moves	1	natural 	1	n	0	0    	 	0.0	0	166.48490489972798	166.584775999654	0.0998710999265313
148435	100	356	stimuli\animals2\pigeon\animal_pigeon05.jpg      	1	5	1	animal_pigeon05.jpg  	animals2 	1	pigeon    	28	pigeon05    	284	alive    	1	moves	1	natural 	1	n	0	1    	f	0.0	0	166.63488429971	166.73475029971502	0.0998660000041127
148585	100	357	stimuli\animals\dolphin\animal_dolphin04.jpg     	1	5	1	animal_dolphin04.jpg 	animals  	0	dolphin   	12	dolphin04   	123	alive    	1	moves	1	natural 	1	n	0	0    	 	0.0	0	166.784873699769	166.88478779979098	0.0999141000211238
148735	100	358	stimuli\plant\grass\plant_grass09.jpg            	1	5	1	plant_grass09.jpg    	plant    	6	grass     	17	grass09     	178	alive    	1	still	0	natural 	1	n	0	0    	 	0.0	0	166.934878999833	167.03478079987698	0.0999018000438809
148885	100	359	stimuli\nonmovNat\cliff\nmn_cliff06.jpg          	1	5	1	nmn_cliff06.jpg      	nonmovNat	5	cliff     	7	cliff06     	75	not_alive	0	still	0	natural 	1	n	0	0    	 	0.0	0	167.08487989986298	167.184779299889	0.0998994000256061
149035	100	360	stimuli\animals\dolphin\animal_dolphin01.jpg     	1	5	1	animal_dolphin01.jpg 	animals  	0	dolphin   	12	dolphin01   	120	alive    	1	moves	1	natural 	1	n	0	0    	 	0.0	0	167.23488179966802	167.3347819997	0.0999002000316977
149185	100	361	stimuli\movNat\river\mn_river01.jpg              	1	5	1	mn_river01.jpg       	movNat   	3	river     	29	river01     	290	not_alive	0	moves	1	natural 	1	n	0	0    	 	0.0	0	167.384887899738	167.48478069994601	0.0998928002081811
149335	100	362	stimuli\plant2\lemontree\plant_lemontree05.jpg   	1	5	1	plant_lemontree05.jpg	plant2   	7	lemontree 	22	lemontree05 	224	alive    	1	still	0	natural 	1	n	0	0    	 	0.0	0	167.534916199744	167.634865299799	0.0999491000548005
149485	100	363	stimuli\plant\tree\plant_tree09.jpg              	1	5	1	plant_tree09.jpg     	plant    	6	tree      	35	tree09      	358	alive    	1	still	0	natural 	1	n	0	0    	 	0.0	0	167.684964600019	167.784776200075	0.0998116000555455
149635	100	364	stimuli\nonmovArt\mug\nma_mug02.jpg              	1	5	1	nma_mug02.jpg        	nonmovArt	4	mug       	26	mug02       	261	not_alive	0	still	0	artefact	0	n	0	0    	 	0.0	0	167.834876599722	167.93474819976802	0.0998716000467538
149785	100	365	stimuli\nonmovNat\sand\nmn_sand07.jpg            	1	5	1	nmn_sand07.jpg       	nonmovNat	5	sand      	31	sand07      	316	not_alive	0	still	0	natural 	1	n	0	0    	 	0.0	0	167.984863599762	168.084772699978	0.099909100215882
149935	100	366	stimuli\movArt\train\ma_train08.jpg              	1	5	1	ma_train08.jpg       	movArt   	2	train     	34	train08     	347	not_alive	0	moves	1	artefact	0	n	0	0    	 	0.0	0	168.134860399645	168.234731999692	0.0998716000467538
150085	100	367	stimuli\plant\flower\plant_flower06.jpg          	1	5	1	plant_flower06.jpg   	plant    	6	flower    	16	flower06    	165	alive    	1	still	0	natural 	1	n	0	0    	 	0.0	0	168.284860999789	168.38473779987498	0.0998768000863492
150235	100	368	stimuli\movNat\waterfall\mn_waterfall04.jpg      	1	5	1	mn_waterfall04.jpg   	movNat   	3	waterfall 	37	waterfall04 	373	not_alive	0	moves	1	natural 	1	n	0	0    	 	0.0	0	168.43484849995002	168.534737600014	0.0998891000635922
150385	100	369	stimuli\animals2\pigeon\animal_pigeon03.jpg      	1	5	1	animal_pigeon03.jpg  	animals2 	1	pigeon    	28	pigeon03    	282	alive    	1	moves	1	natural 	1	n	0	0    	 	0.0	0	168.584850899875	168.684743199963	0.0998923000879585
150535	100	370	stimuli\nonmovArt\mug\nma_mug04.jpg              	1	5	1	nma_mug04.jpg        	nonmovArt	4	mug       	26	mug04       	263	not_alive	0	still	0	artefact	0	n	0	0    	 	0.0	0	168.734858199954	168.834733000025	0.0998748000711202
150685	100	371	stimuli\nonmovNat\shell\nmn_shell09.jpg          	1	5	1	nmn_shell09.jpg      	nonmovNat	5	shell     	32	shell09     	328	not_alive	0	still	0	natural 	1	n	0	0    	 	0.0	0	168.884863999672	168.984763099812	0.0998991001397371
150835	100	372	stimuli\nonmovNat\shell\nmn_shell09.jpg          	1	5	1	nmn_shell09.jpg      	nonmovNat	5	shell     	32	shell09     	328	not_alive	0	still	0	natural 	1	n	0	0    	 	0.0	0	169.034850100055	169.134727899916	0.0998777998611331
150985	100	373	stimuli\nonmovArt\lock\nma_lock05.jpg            	1	5	1	nma_lock05.jpg       	nonmovArt	4	lock      	24	lock05      	244	not_alive	0	still	0	artefact	0	n	0	0    	 	0.0	0	169.184845699929	169.284771299921	0.0999255999922752
151135	100	374	stimuli\plant2\clover\plant_clover06.jpg         	1	5	1	plant_clover06.jpg   	plant2   	7	clover    	9	clover06    	95	alive    	1	still	0	natural 	1	n	0	0    	 	0.0	0	169.334827899933	169.434834899846	0.10000699991360301
151285	100	375	stimuli\animals2\whale\animal_whale07.jpg        	1	5	1	animal_whale07.jpg   	animals2 	1	whale     	39	whale07     	396	alive    	1	moves	1	natural 	1	n	1	0    	 	0.0	0	169.484976300038	169.584712799639	0.0997364996001124
151435	100	376	stimuli\nonmovNat\crystal\nmn_crystal02.jpg      	1	5	1	nmn_crystal02.jpg    	nonmovNat	5	crystal   	10	crystal02   	101	not_alive	0	still	0	natural 	1	n	0	0    	 	0.0	0	169.634823199827	169.734700999688	0.0998777998611331
151585	100	377	stimuli\movNat\hotspring\mn_hotspring10.jpg      	1	5	1	mn_hotspring10.jpg   	movNat   	3	hotspring 	21	hotspring10 	219	not_alive	0	moves	1	natural 	1	n	0	1    	f	0.391817499883473	1	169.784817599691	169.884726899676	0.0999092999845743
151735	100	378	stimuli\nonmovArt\headphones\nma_headphones03.jpg	1	5	1	nma_headphones03.jpg 	nonmovArt	4	headphones	18	headphones03	182	not_alive	0	still	0	artefact	0	n	0	0    	 	0.0	0	169.93482729978902	170.034729099832	0.0999018000438809
151885	100	379	stimuli\nonmovNat\cliff\nmn_cliff08.jpg          	1	5	1	nmn_cliff08.jpg      	nonmovNat	5	cliff     	7	cliff08     	77	not_alive	0	still	0	natural 	1	n	0	0    	 	0.0	0	170.084816399962	170.18472959986	0.0999131998978555
152035	100	380	stimuli\plant\vine\plant_vine07.jpg              	1	5	1	plant_vine07.jpg     	plant    	6	vine      	36	vine07      	366	alive    	1	still	0	natural 	1	n	0	0    	 	0.0	0	170.234771799762	170.334742499981	0.0999707002192735
152185	100	381	stimuli\plant\vine\plant_vine06.jpg              	1	5	1	plant_vine06.jpg     	plant    	6	vine      	36	vine06      	365	alive    	1	still	0	natural 	1	n	0	0    	 	0.0	0	170.38481639977502	170.484728599899	0.0999122001230716
152335	100	382	stimuli\plant2\clover\plant_clover07.jpg         	1	5	1	plant_clover07.jpg   	plant2   	7	clover    	9	clover07    	96	alive    	1	still	0	natural 	1	n	0	0    	 	0.0	0	170.53483809996402	170.63473600009502	0.0998979001305997
152485	100	383	stimuli\movArt\car\ma_car05.jpg                  	1	5	1	ma_car05.jpg         	movArt   	2	car       	5	car05       	54	not_alive	0	moves	1	artefact	0	n	0	0    	 	0.0	0	170.684810400009	170.78471700008998	0.0999066000804305
152635	100	384	stimuli\nonmovArt\bench\nma_bench07.jpg          	1	5	1	nma_bench07.jpg      	nonmovArt	4	bench     	1	bench07     	16	not_alive	0	still	0	artefact	0	n	0	0    	 	0.0	0	170.834836399648	170.934721999802	0.0998856001533568
152785	100	385	stimuli\animals2\pigeon\animal_pigeon06.jpg      	1	5	1	animal_pigeon06.jpg  	animals2 	1	pigeon    	28	pigeon06    	285	alive    	1	moves	1	natural 	1	n	0	0    	 	0.0	0	170.984808600042	171.08475490007498	0.0999463000334799
152935	100	386	stimuli\plant\cactus\plant_cactus06.jpg          	1	5	1	plant_cactus06.jpg   	plant    	6	cactus    	4	cactus06    	45	alive    	1	still	0	natural 	1	n	0	0    	 	0.0	0	171.134848199785	171.23480429966003	0.0999560998752713
153085	100	387	stimuli\plant\grass\plant_grass01.jpg            	1	5	1	plant_grass01.jpg    	plant    	6	grass     	17	grass01     	170	alive    	1	still	0	natural 	1	n	0	0    	 	0.0	0	171.284914699849	171.384742700029	0.0998280001804232
153235	100	388	stimuli\plant2\moss\plant_moss01.jpg             	1	5	1	plant_moss01.jpg     	plant2   	7	moss      	25	moss01      	250	alive    	1	still	0	natural 	1	n	0	0    	 	0.0	0	171.43482639966498	171.534726299811	0.0998999001458287
153385	100	389	stimuli\animals\dog\animal_dog02.jpg             	1	5	1	animal_dog02.jpg     	animals  	0	dog       	11	dog02       	111	alive    	1	moves	1	natural 	1	n	0	0    	 	0.0	0	171.584791800007	171.684734900016	0.0999431000091135
153535	100	390	stimuli\plant2\clover\plant_clover06.jpg         	1	5	1	plant_clover06.jpg   	plant2   	7	clover    	9	clover06    	95	alive    	1	still	0	natural 	1	n	0	0    	 	0.0	0	171.734807400033	171.834719699807	0.0999122997745871
153685	100	391	stimuli\movNat\fire\mn_fire05.jpg                	1	5	1	mn_fire05.jpg        	movNat   	3	fire      	15	fire05      	154	not_alive	0	moves	1	natural 	1	n	0	0    	 	0.0	0	171.88482300005901	171.984733399935	0.0999103998765349
153835	100	392	stimuli\plant2\palmtree\plant_palmtree04.jpg     	1	5	1	plant_palmtree04.jpg 	plant2   	7	palmtree  	27	palmtree04  	273	alive    	1	still	0	natural 	1	n	0	0    	 	0.0	0	172.034825799987	172.13472090009603	0.0998951001092791
153985	100	393	stimuli\movArt\boat\ma_boat03.jpg                	1	5	1	ma_boat03.jpg        	movArt   	2	boat      	2	boat03      	22	not_alive	0	moves	1	artefact	0	n	0	0    	 	0.0	0	172.184812499676	172.28468769974998	0.099875200074166
154135	100	394	stimuli\animals2\tiger\animal_tiger06.jpg        	1	5	1	animal_tiger06.jpg   	animals2 	1	tiger     	33	tiger06     	335	alive    	1	moves	1	natural 	1	n	0	0    	 	0.0	0	172.33478830009702	172.434718799777	0.0999304996803402
154285	100	395	stimuli\plant2\palmtree\plant_palmtree03.jpg     	1	5	1	plant_palmtree03.jpg 	plant2   	7	palmtree  	27	palmtree03  	272	alive    	1	still	0	natural 	1	n	0	0    	 	0.0	0	172.484779200051	172.584682399873	0.0999031998217106
154435	100	396	stimuli\movNat\hotspring\mn_hotspring09.jpg      	1	5	1	mn_hotspring09.jpg   	movNat   	3	hotspring 	21	hotspring09 	218	not_alive	0	moves	1	natural 	1	n	0	0    	 	0.0	0	172.634824299719	172.73466819990398	0.0998439001850783
154585	100	397	stimuli\nonmovArt\mug\nma_mug09.jpg              	1	5	1	nma_mug09.jpg        	nonmovArt	4	mug       	26	mug09       	268	not_alive	0	still	0	artefact	0	n	0	0    	 	0.0	0	172.78481149999402	172.88472920004298	0.09991770004853599
154735	100	398	stimuli\animals2\tiger\animal_tiger09.jpg        	1	5	1	animal_tiger09.jpg   	animals2 	1	tiger     	33	tiger09     	338	alive    	1	moves	1	natural 	1	n	0	0    	 	0.0	0	172.93483239971098	173.034807299729	0.0999749000184238
154885	100	399	stimuli\plant2\fern\plant_fern01.jpg             	1	5	1	plant_fern01.jpg     	plant2   	7	fern      	14	fern01      	140	alive    	1	still	0	natural 	1	n	0	0    	 	0.0	0	173.084800200071	173.18470149999501	0.0999012999236583
159302	100	400	stimuli\plant2\moss\plant_moss08.jpg             	1	6	1	plant_moss08.jpg     	plant2   	7	moss      	25	moss08      	257	alive    	1	still	0	natural 	1	n	0	0    	 	0.0	0	177.501406599768	177.60126979974999	0.0998631999827921
159452	100	401	stimuli\movArt\car\ma_car04.jpg                  	1	6	1	ma_car04.jpg         	movArt   	2	car       	5	car04       	53	not_alive	0	moves	1	artefact	0	n	0	0    	 	0.0	0	177.65138359973201	177.751278299838	0.0998947001062333
159602	100	402	stimuli\nonmovNat\sand\nmn_sand10.jpg            	1	6	1	nmn_sand10.jpg       	nonmovNat	5	sand      	31	sand10      	319	not_alive	0	still	0	natural 	1	n	0	0    	 	0.0	0	177.801385699771	177.901267000008	0.0998813002370298
159752	100	403	stimuli\movArt\train\ma_train08.jpg              	1	6	1	ma_train08.jpg       	movArt   	2	train     	34	train08     	347	not_alive	0	moves	1	artefact	0	n	0	0    	 	0.0	0	177.951384000014	178.051291000098	0.0999070000834763
159902	100	404	stimuli\animals\eagle\animal_eagle04.jpg         	1	6	1	animal_eagle04.jpg   	animals  	0	eagle     	13	eagle04     	133	alive    	1	moves	1	natural 	1	n	0	0    	 	0.0	0	178.101387899835	178.20131319994098	0.0999253001064062
160052	100	405	stimuli\animals2\whale\animal_whale10.jpg        	1	6	1	animal_whale10.jpg   	animals2 	1	whale     	39	whale10     	399	alive    	1	moves	1	natural 	1	n	0	0    	 	0.0	0	178.251362999901	178.351340099704	0.099977099802345
160202	100	406	stimuli\movNat\waterfall\mn_waterfall09.jpg      	1	6	1	mn_waterfall09.jpg   	movNat   	3	waterfall 	37	waterfall09 	378	not_alive	0	moves	1	natural 	1	n	0	0    	 	0.0	0	178.401397999842	178.501287899911	0.0998899000696838
160352	100	407	stimuli\plant\tree\plant_tree01.jpg              	1	6	1	plant_tree01.jpg     	plant    	6	tree      	35	tree01      	350	alive    	1	still	0	natural 	1	n	0	0    	 	0.0	0	178.551382799633	178.65127719985298	0.0998944002203643
160502	100	408	stimuli\nonmovArt\lock\nma_lock07.jpg            	1	6	1	nma_lock07.jpg       	nonmovArt	4	lock      	24	lock07      	246	not_alive	0	still	0	artefact	0	n	0	0    	 	0.0	0	178.701373399701	178.801287999842	0.0999146001413464
160652	100	409	stimuli\animals\cat\animal_cat03.jpg             	1	6	1	animal_cat03.jpg     	animals  	0	cat       	6	cat03       	62	alive    	1	moves	1	natural 	1	n	0	0    	 	0.0	0	178.85137889999902	178.951283599716	0.0999046997167169
160802	100	410	stimuli\plant\flower\plant_flower09.jpg          	1	6	1	plant_flower09.jpg   	plant    	6	flower    	16	flower09    	168	alive    	1	still	0	natural 	1	n	0	0    	 	0.0	0	179.00137209985402	179.101277499925	0.0999054000712931
160952	100	411	stimuli\movNat\waves\mn_waves02.jpg              	1	6	1	mn_waves02.jpg       	movNat   	3	waves     	38	waves02     	381	not_alive	0	moves	1	natural 	1	n	0	0    	 	0.0	0	179.15135920001202	179.251259299926	0.0999000999145209
161102	100	412	stimuli\nonmovArt\bench\nma_bench10.jpg          	1	6	1	nma_bench10.jpg      	nonmovArt	4	bench     	1	bench10     	19	not_alive	0	still	0	artefact	0	n	0	0    	 	0.0	0	179.301353199873	179.401281599887	0.0999284000135958
161252	100	413	stimuli\movArt\bus\ma_bus05.jpg                  	1	6	1	ma_bus05.jpg         	movArt   	2	bus       	3	bus05       	34	not_alive	0	moves	1	artefact	0	n	0	0    	 	0.0	0	179.451363499742	179.55126199964403	0.0998984999023378
161402	100	414	stimuli\plant\grass\plant_grass02.jpg            	1	6	1	plant_grass02.jpg    	plant    	6	grass     	17	grass02     	171	alive    	1	still	0	natural 	1	n	0	0    	 	0.0	0	179.60135849984403	179.701262999792	0.0999044999480247
161552	100	415	stimuli\animals2\tiger\animal_tiger10.jpg        	1	6	1	animal_tiger10.jpg   	animals2 	1	tiger     	33	tiger10     	339	alive    	1	moves	1	natural 	1	n	0	0    	 	0.0	0	179.751352199819	179.851267499849	0.0999153000302612
161702	100	416	stimuli\animals2\bee\animal_bee03.jpg            	1	6	1	animal_bee03.jpg     	animals2 	1	bee       	0	bee03       	2	alive    	1	moves	1	natural 	1	n	0	0    	 	0.0	0	179.901370400097	180.00126269972	0.0998922996222972
161852	100	417	stimuli\nonmovNat\crystal\nmn_crystal08.jpg      	1	6	1	nmn_crystal08.jpg    	nonmovNat	5	crystal   	10	crystal08   	107	not_alive	0	still	0	natural 	1	n	0	0    	 	0.0	0	180.051359300036	180.151377799921	0.10001849988475399
