onset	duration	eventnumber	stimulus_file	blockno	trialno	is_faststream	stim	stim_category	category_number	exemplar	exemplar_number	image_name	image_number	aliveness	aliveness_bin	movement	movement_bin	naturalness	naturalness_bin	response_hand_moves	istarget	response	keypressed	rt	correct	time_stimon	time_stimoff	stimdur
66889	100	0	stimuli\nonmovArt\headphones\nma_headphones06.jpg	1	1	1	nma_headphones06.jpg 	nonmovArt	4	headphones	18	headphones06	185	not_alive	0	still	0	artefact	0	n	0	0    	 	0.0	0	93.73700369987641	93.8369956999086	0.0999920000322163
67039	100	1	stimuli\animals2\pigeon\animal_pigeon10.jpg      	1	1	1	animal_pigeon10.jpg  	animals2 	1	pigeon    	28	pigeon10    	289	alive    	1	moves	1	natural 	1	n	0	0    	 	0.0	0	93.88701419997959	93.9869833998382	0.0999691998586058
67189	100	2	stimuli\nonmovNat\shell\nmn_shell02.jpg          	1	1	1	nmn_shell02.jpg      	nonmovNat	5	shell     	32	shell02     	321	not_alive	0	still	0	natural 	1	n	0	0    	 	0.0	0	94.0370014999062	94.1369916000404	0.0999901001341641
67339	100	3	stimuli\animals\dolphin\animal_dolphin08.jpg     	1	1	1	animal_dolphin08.jpg 	animals  	0	dolphin   	12	dolphin08   	127	alive    	1	moves	1	natural 	1	n	0	0    	 	0.0	0	94.18700039992109	94.2869893000461	0.0999889001250267
67489	100	4	stimuli\movNat\hotspring\mn_hotspring02.jpg      	1	1	1	mn_hotspring02.jpg   	movNat   	3	hotspring 	21	hotspring02 	211	not_alive	0	moves	1	natural 	1	n	0	0    	 	0.0	0	94.3369976999238	94.4369879998267	0.0999902999028563
67639	100	5	stimuli\plant2\fern\plant_fern08.jpg             	1	1	1	plant_fern08.jpg     	plant2   	7	fern      	14	fern08      	147	alive    	1	still	0	natural 	1	n	0	0    	 	0.0	0	94.48701300006358	94.58700599987058	0.0999929998070001
67789	100	6	stimuli\movArt\helicopter\ma_helicopter10.jpg    	1	1	1	ma_helicopter10.jpg  	movArt   	2	helicopter	19	helicopter10	199	not_alive	0	moves	1	artefact	0	n	0	0    	 	0.0	0	94.63699449971321	94.73698469996451	0.0999902002513408
67939	100	7	stimuli\movNat\fire\mn_fire01.jpg                	1	1	1	mn_fire01.jpg        	movNat   	3	fire      	15	fire01      	150	not_alive	0	moves	1	natural 	1	n	0	0    	 	0.0	0	94.7869867999107	94.8869847999886	0.0999980000779032
68089	100	8	stimuli\animals\horse\animal_horse02.jpg         	1	1	1	animal_horse02.jpg   	animals  	0	horse     	20	horse02     	201	alive    	1	moves	1	natural 	1	n	0	0    	 	0.0	0	94.93726049968971	95.0369835998863	0.0997231001965701
68239	100	9	stimuli\nonmovNat\sand\nmn_sand03.jpg            	1	1	1	nmn_sand03.jpg       	nonmovNat	5	sand      	31	sand03      	312	not_alive	0	still	0	natural 	1	n	0	0    	 	0.0	0	95.08699300000441	95.1869800998829	0.0999870998784899
68389	100	10	stimuli\nonmovArt\lock\nma_lock07.jpg            	1	1	1	nma_lock07.jpg       	nonmovArt	4	lock      	24	lock07      	246	not_alive	0	still	0	artefact	0	n	0	0    	 	0.0	0	95.2369892997667	95.33697489975019	0.0999855999834835
68539	100	11	stimuli\movNat\river\mn_river03.jpg              	1	1	1	mn_river03.jpg       	movNat   	3	river     	29	river03     	292	not_alive	0	moves	1	natural 	1	n	0	0    	 	0.0	0	95.38698629988359	95.48697669990361	0.0999904000200331
68689	100	12	stimuli\animals2\lemur\animal_lemur10.jpg        	1	1	1	animal_lemur10.jpg   	animals2 	1	lemur     	23	lemur10     	239	alive    	1	moves	1	natural 	1	n	0	0    	 	0.0	0	95.53698570001872	95.6369755999185	0.0999898998998105
68839	100	13	stimuli\animals\horse\animal_horse01.jpg         	1	1	1	animal_horse01.jpg   	animals  	0	horse     	20	horse01     	200	alive    	1	moves	1	natural 	1	n	0	0    	 	0.0	0	95.68698309967291	95.7869726000354	0.09998950036242599
68989	100	14	stimuli\movArt\car\ma_car02.jpg                  	1	1	1	ma_car02.jpg         	movArt   	2	car       	5	car02       	51	not_alive	0	moves	1	artefact	0	n	0	0    	 	0.0	0	95.83698079967871	95.93697459995751	0.099993800278753
69139	100	15	stimuli\plant2\palmtree\plant_palmtree07.jpg     	1	1	1	plant_palmtree07.jpg 	plant2   	7	palmtree  	27	palmtree07  	276	alive    	1	still	0	natural 	1	n	1	0    	 	0.0	0	95.98697829991579	96.0869716997258	0.0999933998100459
69289	100	16	stimuli\movArt\bus\ma_bus04.jpg                  	1	1	1	ma_bus04.jpg         	movArt   	2	bus       	3	bus04       	33	not_alive	0	moves	1	artefact	0	n	0	1    	f	0.250179999973625	1	96.13697699969629	96.236968100071	0.0999911003746092
69439	100	17	stimuli\movArt\car\ma_car10.jpg                  	1	1	1	ma_car10.jpg         	movArt   	2	car       	5	car10       	59	not_alive	0	moves	1	artefact	0	n	0	0    	 	0.0	0	96.28697900008409	96.3869643998332	0.09998539974913001
69589	100	18	stimuli\nonmovNat\cliff\nmn_cliff06.jpg          	1	1	1	nmn_cliff06.jpg      	nonmovNat	5	cliff     	7	cliff06     	75	not_alive	0	still	0	natural 	1	n	0	0    	 	0.0	0	96.4369748998434	96.53696689987561	0.0999920000322163
69739	100	19	stimuli\animals\dog\animal_dog03.jpg             	1	1	1	animal_dog03.jpg     	animals  	0	dog       	11	dog03       	112	alive    	1	moves	1	natural 	1	n	0	0    	 	0.0	0	96.58697229996321	96.686963699758	0.0999913997948169
69889	100	20	stimuli\movArt\helicopter\ma_helicopter02.jpg    	1	1	1	ma_helicopter02.jpg  	movArt   	2	helicopter	19	helicopter02	191	not_alive	0	moves	1	artefact	0	n	0	0    	 	0.0	0	96.73696970008311	96.8369637001306	0.0999940000474453
70039	100	21	stimuli\animals2\pigeon\animal_pigeon05.jpg      	1	1	1	animal_pigeon05.jpg  	animals2 	1	pigeon    	28	pigeon05    	284	alive    	1	moves	1	natural 	1	n	0	0    	 	0.0	0	96.88696980010721	96.98695780010891	0.0999880000017583
70189	100	22	stimuli\movNat\hotspring\mn_hotspring01.jpg      	1	1	1	mn_hotspring01.jpg   	movNat   	3	hotspring 	21	hotspring01 	210	not_alive	0	moves	1	natural 	1	n	0	0    	 	0.0	0	97.0369655000977	97.13695879979059	0.0999932996928692
70339	100	23	stimuli\nonmovArt\bench\nma_bench03.jpg          	1	1	1	nma_bench03.jpg      	nonmovArt	4	bench     	1	bench03     	12	not_alive	0	still	0	artefact	0	n	0	0    	 	0.0	0	97.18696560012181	97.28695799969141	0.0999923995696008
70489	100	24	stimuli\movNat\waves\mn_waves06.jpg              	1	1	1	mn_waves06.jpg       	movNat   	3	waves     	38	waves06     	385	not_alive	0	moves	1	natural 	1	n	0	0    	 	0.0	0	97.3369660000317	97.4369572997093	0.0999912996776402
70639	100	25	stimuli\nonmovNat\shell\nmn_shell08.jpg          	1	1	1	nmn_shell08.jpg      	nonmovNat	5	shell     	32	shell08     	327	not_alive	0	still	0	natural 	1	n	0	0    	 	0.0	0	97.4869659999386	97.58695490006359	0.0999889001250267
70789	100	26	stimuli\plant\flower\plant_flower09.jpg          	1	1	1	plant_flower09.jpg   	plant    	6	flower    	16	flower09    	168	alive    	1	still	0	natural 	1	n	0	0    	 	0.0	0	97.63696349971	97.73695149971171	0.0999880000017583
70939	100	27	stimuli\animals2\bee\animal_bee09.jpg            	1	1	1	animal_bee09.jpg     	animals2 	1	bee       	0	bee09       	8	alive    	1	moves	1	natural 	1	n	0	0    	 	0.0	0	97.7869548997842	97.88694929983471	0.0999944000504911
71089	100	28	stimuli\movArt\bus\ma_bus06.jpg                  	1	1	1	ma_bus06.jpg         	movArt   	2	bus       	3	bus06       	35	not_alive	0	moves	1	artefact	0	n	0	0    	 	0.0	0	97.9369568000548	98.03694800008091	0.0999912000261247
71239	100	29	stimuli\movArt\train\ma_train06.jpg              	1	1	1	ma_train06.jpg       	movArt   	2	train     	34	train06     	345	not_alive	0	moves	1	artefact	0	n	0	0    	 	0.0	0	98.0869583999738	98.1869447999634	0.0999863999895751
71389	100	30	stimuli\movArt\helicopter\ma_helicopter07.jpg    	1	1	1	ma_helicopter07.jpg  	movArt   	2	helicopter	19	helicopter07	196	not_alive	0	moves	1	artefact	0	n	0	0    	 	0.0	0	98.2369560999796	98.3369483998976	0.0999922999180853
71539	100	31	stimuli\plant\tree\plant_tree07.jpg              	1	1	1	plant_tree07.jpg     	plant    	6	tree      	35	tree07      	356	alive    	1	still	0	natural 	1	n	0	0    	 	0.0	0	98.3869532998651	98.48694540001449	0.09999210014939301
71689	100	32	stimuli\plant\flower\plant_flower06.jpg          	1	1	1	plant_flower06.jpg   	plant    	6	flower    	16	flower06    	165	alive    	1	still	0	natural 	1	n	0	0    	 	0.0	0	98.5369555996731	98.63694329978901	0.0999877001158893
71839	100	33	stimuli\plant\tree\plant_tree01.jpg              	1	1	1	plant_tree01.jpg     	plant    	6	tree      	35	tree01      	350	alive    	1	still	0	natural 	1	n	0	0    	 	0.0	0	98.6869502998888	98.78693469986321	0.0999843999743461
71989	100	34	stimuli\animals\cat\animal_cat07.jpg             	1	1	1	animal_cat07.jpg     	animals  	0	cat       	6	cat07       	66	alive    	1	moves	1	natural 	1	n	0	0    	 	0.0	0	98.8369513996877	98.9369418998249	0.0999905001372098
72139	100	35	stimuli\animals\cat\animal_cat10.jpg             	1	1	1	animal_cat10.jpg     	animals  	0	cat       	6	cat10       	69	alive    	1	moves	1	natural 	1	n	0	0    	 	0.0	0	98.9869448998943	99.08693769993259	0.0999928000383079
72289	100	36	stimuli\animals2\lemur\animal_lemur06.jpg        	1	1	1	animal_lemur06.jpg   	animals2 	1	lemur     	23	lemur06     	235	alive    	1	moves	1	natural 	1	n	0	0    	 	0.0	0	99.1369456998073	99.2369351000525	0.0999894002452492
72439	100	37	stimuli\movArt\bus\ma_bus04.jpg                  	1	1	1	ma_bus04.jpg         	movArt   	2	bus       	3	bus04       	33	not_alive	0	moves	1	artefact	0	n	0	0    	 	0.0	0	99.28694449970502	99.3869330999441	0.0999886002391576
72589	100	38	stimuli\nonmovArt\bench\nma_bench03.jpg          	1	1	1	nma_bench03.jpg      	nonmovArt	4	bench     	1	bench03     	12	not_alive	0	still	0	artefact	0	n	0	0    	 	0.0	0	99.436941599939	99.5369321997277	0.0999905997887253
72739	100	39	stimuli\plant2\clover\plant_clover10.jpg         	1	1	1	plant_clover10.jpg   	plant2   	7	clover    	9	clover10    	99	alive    	1	still	0	natural 	1	n	0	0    	 	0.0	0	99.586942399852	99.68693220010029	0.099989800248295
72889	100	40	stimuli\movArt\boat\ma_boat10.jpg                	1	1	1	ma_boat10.jpg        	movArt   	2	boat      	2	boat10      	29	not_alive	0	moves	1	artefact	0	n	0	0    	 	0.0	0	99.73694059997801	99.83693239977579	0.0999917997978627
73039	100	41	stimuli\plant\vine\plant_vine02.jpg              	1	1	1	plant_vine02.jpg     	plant    	6	vine      	36	vine02      	361	alive    	1	still	0	natural 	1	n	0	0    	 	0.0	0	99.8869366999716	99.9869288997725	0.0999921998009085
73189	100	42	stimuli\nonmovNat\cliff\nmn_cliff02.jpg          	1	1	1	nmn_cliff02.jpg      	nonmovNat	5	cliff     	7	cliff02     	71	not_alive	0	still	0	natural 	1	n	0	0    	 	0.0	0	100.036933999974	100.136925899889	0.0999918999150395
73339	100	43	stimuli\movArt\train\ma_train07.jpg              	1	1	1	ma_train07.jpg       	movArt   	2	train     	34	train07     	346	not_alive	0	moves	1	artefact	0	n	0	0    	 	0.0	0	100.186933099758	100.286921199877	0.0999881001189351
73489	100	44	stimuli\plant2\palmtree\plant_palmtree09.jpg     	1	1	1	plant_palmtree09.jpg 	plant2   	7	palmtree  	27	palmtree09  	278	alive    	1	still	0	natural 	1	n	0	0    	 	0.0	0	100.33693150011801	100.436924499925	0.0999929998070001
73639	100	45	stimuli\nonmovArt\mug\nma_mug10.jpg              	1	1	1	nma_mug10.jpg        	nonmovArt	4	mug       	26	mug10       	269	not_alive	0	still	0	artefact	0	n	0	0    	 	0.0	0	100.486928099766	100.586920300033	0.0999922002665698
73789	100	46	stimuli\animals\dolphin\animal_dolphin10.jpg     	1	1	1	animal_dolphin10.jpg 	animals  	0	dolphin   	12	dolphin10   	129	alive    	1	moves	1	natural 	1	n	0	0    	 	0.0	0	100.63692889967899	100.736921399832	0.0999925001524388
73939	100	47	stimuli\nonmovArt\mug\nma_mug03.jpg              	1	1	1	nma_mug03.jpg        	nonmovArt	4	mug       	26	mug03       	262	not_alive	0	still	0	artefact	0	n	0	0    	 	0.0	0	100.786921199877	100.887719700113	0.10079850023612401
74090	100	48	stimuli\animals\dolphin\animal_dolphin04.jpg     	1	1	1	animal_dolphin04.jpg 	animals  	0	dolphin   	12	dolphin04   	123	alive    	1	moves	1	natural 	1	n	0	0    	 	0.0	0	100.93779869983	101.037718600128	0.0999199002981186
74240	100	49	stimuli\nonmovNat\sand\nmn_sand02.jpg            	1	1	1	nmn_sand02.jpg       	nonmovNat	5	sand      	31	sand02      	311	not_alive	0	still	0	natural 	1	n	0	0    	 	0.0	0	101.08781079994499	101.187891199719	0.100080399774015
74390	100	50	stimuli\nonmovArt\clothespeg\nma_clothespeg03.jpg	1	1	1	nma_clothespeg03.jpg 	nonmovArt	4	clothespeg	8	clothespeg03	82	not_alive	0	still	0	artefact	0	n	0	0    	 	0.0	0	101.237859500106	101.337700199801	0.0998406996950507
74540	100	51	stimuli\movNat\waves\mn_waves10.jpg              	1	1	1	mn_waves10.jpg       	movNat   	3	waves     	38	waves10     	389	not_alive	0	moves	1	natural 	1	n	0	0    	 	0.0	0	101.38780270004601	101.487709799781	0.0999070997349918
74690	100	52	stimuli\nonmovNat\rock\nmn_rock01.jpg            	1	1	1	nmn_rock01.jpg       	nonmovNat	5	rock      	30	rock01      	300	not_alive	0	still	0	natural 	1	n	1	0    	 	0.0	0	101.537792500108	101.63770959991999	0.0999170998111367
74840	100	53	stimuli\plant\cactus\plant_cactus06.jpg          	1	1	1	plant_cactus06.jpg   	plant    	6	cactus    	4	cactus06    	45	alive    	1	still	0	natural 	1	n	1	0    	 	0.0	0	101.68779719993499	101.787685799878	0.0998885999433696
74990	100	54	stimuli\movNat\waterfall\mn_waterfall03.jpg      	1	1	1	mn_waterfall03.jpg   	movNat   	3	waterfall 	37	waterfall03 	372	not_alive	0	moves	1	natural 	1	n	0	1    	f	0.14200930017978	1	101.837793199811	101.93769920012	0.0999060003086924
75140	100	55	stimuli\nonmovNat\sand\nmn_sand02.jpg            	1	1	1	nmn_sand02.jpg       	nonmovNat	5	sand      	31	sand02      	311	not_alive	0	still	0	natural 	1	n	0	1    	f	0.39193699974566704	1	101.987786799669	102.08770619984699	0.09991940017789601
75290	100	56	stimuli\animals2\lemur\animal_lemur09.jpg        	1	1	1	animal_lemur09.jpg   	animals2 	1	lemur     	23	lemur09     	238	alive    	1	moves	1	natural 	1	n	0	0    	 	0.0	0	102.137781799771	102.237698999699	0.0999171999283135
75440	100	57	stimuli\plant2\clover\plant_clover02.jpg         	1	1	1	plant_clover02.jpg   	plant2   	7	clover    	9	clover02    	91	alive    	1	still	0	natural 	1	n	0	0    	 	0.0	0	102.28777709975799	102.38769380003201	0.0999167002737522
75590	100	58	stimuli\nonmovNat\rock\nmn_rock03.jpg            	1	1	1	nmn_rock03.jpg       	nonmovNat	5	rock      	30	rock03      	302	not_alive	0	still	0	natural 	1	n	0	0    	 	0.0	0	102.43779349979	102.537700099871	0.0999066000804305
75740	100	59	stimuli\movNat\waterfall\mn_waterfall09.jpg      	1	1	1	mn_waterfall09.jpg   	movNat   	3	waterfall 	37	waterfall09 	378	not_alive	0	moves	1	natural 	1	n	1	0    	 	0.0	0	102.587778999936	102.68772580009	0.0999468001537025
75890	100	60	stimuli\plant2\moss\plant_moss02.jpg             	1	1	1	plant_moss02.jpg     	plant2   	7	moss      	25	moss02      	251	alive    	1	still	0	natural 	1	n	0	0    	 	0.0	0	102.737778999843	102.837697499897	0.0999185000546276
76040	100	61	stimuli\nonmovNat\crystal\nmn_crystal04.jpg      	1	1	1	nmn_crystal04.jpg    	nonmovNat	5	crystal   	10	crystal04   	103	not_alive	0	still	0	natural 	1	n	0	1    	f	0.391975999809802	1	102.88777439994699	102.987793100066	0.100018700119108
76190	100	62	stimuli\animals2\tiger\animal_tiger09.jpg        	1	1	1	animal_tiger09.jpg   	animals2 	1	tiger     	33	tiger09     	338	alive    	1	moves	1	natural 	1	n	0	0    	 	0.0	0	103.037801399827	103.13769460003799	0.0998932002112269
76340	100	63	stimuli\animals\cat\animal_cat03.jpg             	1	1	1	animal_cat03.jpg     	animals  	0	cat       	6	cat03       	62	alive    	1	moves	1	natural 	1	n	0	0    	 	0.0	0	103.187757099979	103.287689599674	0.0999324996955692
76490	100	64	stimuli\plant2\lemontree\plant_lemontree04.jpg   	1	1	1	plant_lemontree04.jpg	plant2   	7	lemontree 	22	lemontree04 	223	alive    	1	still	0	natural 	1	n	0	0    	 	0.0	0	103.337767600082	103.43767970008801	0.0999121000058949
76640	100	65	stimuli\plant\grass\plant_grass10.jpg            	1	1	1	plant_grass10.jpg    	plant    	6	grass     	17	grass10     	179	alive    	1	still	0	natural 	1	n	0	0    	 	0.0	0	103.48775730002701	103.58768399991101	0.0999266998842358
76790	100	66	stimuli\nonmovArt\mug\nma_mug06.jpg              	1	1	1	nma_mug06.jpg        	nonmovArt	4	mug       	26	mug06       	265	not_alive	0	still	0	artefact	0	n	0	0    	 	0.0	0	103.63776429975401	103.737685699947	0.099921400193125
76940	100	67	stimuli\nonmovNat\crystal\nmn_crystal03.jpg      	1	1	1	nmn_crystal03.jpg    	nonmovNat	5	crystal   	10	crystal03   	102	not_alive	0	still	0	natural 	1	n	0	0    	 	0.0	0	103.787734500133	103.88768569985399	0.0999511997215449
77090	100	68	stimuli\animals2\whale\animal_whale05.jpg        	1	1	1	animal_whale05.jpg   	animals2 	1	whale     	39	whale05     	394	alive    	1	moves	1	natural 	1	n	0	0    	 	0.0	0	103.93775579985201	104.03768539987499	0.0999296000227332
77240	100	69	stimuli\movNat\waves\mn_waves04.jpg              	1	1	1	mn_waves04.jpg       	movNat   	3	waves     	38	waves04     	383	not_alive	0	moves	1	natural 	1	n	0	0    	 	0.0	0	104.087747999933	104.18766489997499	0.0999169000424444
77390	100	70	stimuli\animals\eagle\animal_eagle04.jpg         	1	1	1	animal_eagle04.jpg   	animals  	0	eagle     	13	eagle04     	133	alive    	1	moves	1	natural 	1	n	0	0    	 	0.0	0	104.237762100063	104.337676099967	0.0999139999039471
77540	100	71	stimuli\nonmovArt\clothespeg\nma_clothespeg06.jpg	1	1	1	nma_clothespeg06.jpg 	nonmovArt	4	clothespeg	8	clothespeg06	85	not_alive	0	still	0	artefact	0	n	0	0    	 	0.0	0	104.38775999983801	104.48768340004601	0.099923400208354
77690	100	72	stimuli\animals\horse\animal_horse01.jpg         	1	1	1	animal_horse01.jpg   	animals  	0	horse     	20	horse01     	200	alive    	1	moves	1	natural 	1	n	0	0    	 	0.0	0	104.537746699993	104.637717899866	0.0999711998738348
77840	100	73	stimuli\plant\vine\plant_vine07.jpg              	1	1	1	plant_vine07.jpg     	plant    	6	vine      	36	vine07      	366	alive    	1	still	0	natural 	1	n	0	0    	 	0.0	0	104.687912099995	104.78774809977	0.0998359997756779
77990	100	74	stimuli\animals\dog\animal_dog07.jpg             	1	1	1	animal_dog07.jpg     	animals  	0	dog       	11	dog07       	116	alive    	1	moves	1	natural 	1	n	0	0    	 	0.0	0	104.83777080010599	104.937685799785	0.0999149996787309
78140	100	75	stimuli\plant\vine\plant_vine10.jpg              	1	1	1	plant_vine10.jpg     	plant    	6	vine      	36	vine10      	369	alive    	1	still	0	natural 	1	n	0	0    	 	0.0	0	104.987754399888	105.087660899851	0.0999064999632537
78290	100	76	stimuli\animals\eagle\animal_eagle01.jpg         	1	1	1	animal_eagle01.jpg   	animals  	0	eagle     	13	eagle01     	130	alive    	1	moves	1	natural 	1	n	0	0    	 	0.0	0	105.137748599984	105.23767989966998	0.0999312996864318
78440	100	77	stimuli\plant2\clover\plant_clover06.jpg         	1	1	1	plant_clover06.jpg   	plant2   	7	clover    	9	clover06    	95	alive    	1	still	0	natural 	1	n	0	0    	 	0.0	0	105.28774269996201	105.38767389999701	0.0999312000349164
78590	100	78	stimuli\plant2\fern\plant_fern08.jpg             	1	1	1	plant_fern08.jpg     	plant2   	7	fern      	14	fern08      	147	alive    	1	still	0	natural 	1	n	0	0    	 	0.0	0	105.437741700094	105.537655999884	0.0999142997898161
78740	100	79	stimuli\nonmovArt\bench\nma_bench04.jpg          	1	1	1	nma_bench04.jpg      	nonmovArt	4	bench     	1	bench04     	13	not_alive	0	still	0	artefact	0	n	0	0    	 	0.0	0	105.587750500068	105.68765169987499	0.0999011998064816
83657	100	80	stimuli\plant\tree\plant_tree07.jpg              	1	2	1	plant_tree07.jpg     	plant    	6	tree      	35	tree07      	356	alive    	1	still	0	natural 	1	n	0	0    	 	0.0	0	110.504364499822	110.604268900119	0.0999044002965092
83806	100	81	stimuli\movArt\train\ma_train09.jpg              	1	2	1	ma_train09.jpg       	movArt   	2	train     	34	train09     	348	not_alive	0	moves	1	artefact	0	n	0	0    	 	0.0	0	110.654346500058	110.754273799714	0.0999272996559739
83957	100	82	stimuli\animals2\bee\animal_bee02.jpg            	1	2	1	animal_bee02.jpg     	animals2 	1	bee       	0	bee02       	1	alive    	1	moves	1	natural 	1	n	0	0    	 	0.0	0	110.804370599799	110.904291399755	0.0999207999557256
84106	100	83	stimuli\movNat\river\mn_river06.jpg              	1	2	1	mn_river06.jpg       	movNat   	3	river     	29	river06     	295	not_alive	0	moves	1	natural 	1	n	0	0    	 	0.0	0	110.95434190006901	111.05427289987	0.0999309998005628
84256	100	84	stimuli\plant\flower\plant_flower03.jpg          	1	2	1	plant_flower03.jpg   	plant    	6	flower    	16	flower03    	162	alive    	1	still	0	natural 	1	n	0	0    	 	0.0	0	111.104354899842	111.204258299898	0.0999034000560641
84406	100	85	stimuli\nonmovNat\cliff\nmn_cliff06.jpg          	1	2	1	nmn_cliff06.jpg      	nonmovNat	5	cliff     	7	cliff06     	75	not_alive	0	still	0	natural 	1	n	0	0    	 	0.0	0	111.25434469990401	111.354263199959	0.0999185000546276
84557	100	86	stimuli\animals2\tiger\animal_tiger02.jpg        	1	2	1	animal_tiger02.jpg   	animals2 	1	tiger     	33	tiger02     	331	alive    	1	moves	1	natural 	1	n	0	0    	 	0.0	0	111.40441859979201	111.50425369991001	0.0998351001180708
84706	100	87	stimuli\animals2\whale\animal_whale01.jpg        	1	2	1	animal_whale01.jpg   	animals2 	1	whale     	39	whale01     	390	alive    	1	moves	1	natural 	1	n	0	0    	 	0.0	0	111.55434060003599	111.654262199998	0.0999215999618172
84856	100	88	stimuli\movNat\river\mn_river06.jpg              	1	2	1	mn_river06.jpg       	movNat   	3	river     	29	river06     	295	not_alive	0	moves	1	natural 	1	n	0	0    	 	0.0	0	111.704344700091	111.80425179982599	0.0999070997349918
85006	100	89	stimuli\animals\dog\animal_dog04.jpg             	1	2	1	animal_dog04.jpg     	animals  	0	dog       	11	dog04       	113	alive    	1	moves	1	natural 	1	n	0	0    	 	0.0	0	111.854350099806	111.954261899926	0.0999118001200258
85156	100	90	stimuli\plant\grass\plant_grass07.jpg            	1	2	1	plant_grass07.jpg    	plant    	6	grass     	17	grass07     	176	alive    	1	still	0	natural 	1	n	0	0    	 	0.0	0	112.004331899807	112.104251400102	0.0999195002950728
85306	100	91	stimuli\plant\grass\plant_grass01.jpg            	1	2	1	plant_grass01.jpg    	plant    	6	grass     	17	grass01     	170	alive    	1	still	0	natural 	1	n	0	0    	 	0.0	0	112.154342100024	112.254246700089	0.0999046000652015
85456	100	92	stimuli\nonmovArt\lock\nma_lock06.jpg            	1	2	1	nma_lock06.jpg       	nonmovArt	4	lock      	24	lock06      	245	not_alive	0	still	0	artefact	0	n	0	0    	 	0.0	0	112.30433110008002	112.40425190003599	0.0999207999557256
85606	100	93	stimuli\animals\eagle\animal_eagle03.jpg         	1	2	1	animal_eagle03.jpg   	animals  	0	eagle     	13	eagle03     	132	alive    	1	moves	1	natural 	1	n	0	0    	 	0.0	0	112.45434860000401	112.554257099982	0.0999084999784827
85756	100	94	stimuli\nonmovArt\headphones\nma_headphones04.jpg	1	2	1	nma_headphones04.jpg 	nonmovArt	4	headphones	18	headphones04	183	not_alive	0	still	0	artefact	0	n	0	0    	 	0.0	0	112.604315599892	112.70424159988801	0.099925999995321
85906	100	95	stimuli\animals2\pigeon\animal_pigeon04.jpg      	1	2	1	animal_pigeon04.jpg  	animals2 	1	pigeon    	28	pigeon04    	283	alive    	1	moves	1	natural 	1	n	0	0    	 	0.0	0	112.75433210004101	112.85424529993901	0.0999131998978555
86056	100	96	stimuli\plant2\moss\plant_moss08.jpg             	1	2	1	plant_moss08.jpg     	plant2   	7	moss      	25	moss08      	257	alive    	1	still	0	natural 	1	n	0	0    	 	0.0	0	112.904337999877	113.004265800118	0.0999278002418577
86206	100	97	stimuli\plant2\fern\plant_fern09.jpg             	1	2	1	plant_fern09.jpg     	plant2   	7	fern      	14	fern09      	148	alive    	1	still	0	natural 	1	n	0	0    	 	0.0	0	113.05433089984601	113.15428279992202	0.099951900076121
86357	100	98	stimuli\animals2\tiger\animal_tiger06.jpg        	1	2	1	animal_tiger06.jpg   	animals2 	1	tiger     	33	tiger06     	335	alive    	1	moves	1	natural 	1	n	0	0    	 	0.0	0	113.20443389983801	113.304238900077	0.0998050002381205
86506	100	99	stimuli\nonmovArt\lock\nma_lock02.jpg            	1	2	1	nma_lock02.jpg       	nonmovArt	4	lock      	24	lock02      	241	not_alive	0	still	0	artefact	0	n	1	0    	 	0.0	0	113.35432899976101	113.454266999848	0.0999380000866949
86656	100	100	stimuli\plant2\palmtree\plant_palmtree06.jpg     	1	2	1	plant_palmtree06.jpg 	plant2   	7	palmtree  	27	palmtree06  	275	alive    	1	still	0	natural 	1	n	0	0    	 	0.0	0	113.504307999741	113.604232499842	0.0999245001003146
86806	100	101	stimuli\nonmovArt\clothespeg\nma_clothespeg08.jpg	1	2	1	nma_clothespeg08.jpg 	nonmovArt	4	clothespeg	8	clothespeg08	87	not_alive	0	still	0	artefact	0	n	0	1    	f	0.300191200338304	1	113.654329400044	113.754239999689	0.0999105996452272
86956	100	102	stimuli\nonmovNat\shell\nmn_shell01.jpg          	1	2	1	nmn_shell01.jpg      	nonmovNat	5	shell     	32	shell01     	320	not_alive	0	still	0	natural 	1	n	0	0    	 	0.0	0	113.804322499782	113.90424149995701	0.0999190001748502
87106	100	103	stimuli\plant2\lemontree\plant_lemontree09.jpg   	1	2	1	plant_lemontree09.jpg	plant2   	7	lemontree 	22	lemontree09 	228	alive    	1	still	0	natural 	1	n	0	0    	 	0.0	0	113.95432709995701	114.05422009993299	0.0998929999768734
87256	100	104	stimuli\nonmovNat\crystal\nmn_crystal10.jpg      	1	2	1	nmn_crystal10.jpg    	nonmovNat	5	crystal   	10	crystal10   	109	not_alive	0	still	0	natural 	1	n	0	0    	 	0.0	0	114.104318299796	114.20422479976001	0.0999064999632537
87406	100	105	stimuli\movArt\boat\ma_boat10.jpg                	1	2	1	ma_boat10.jpg        	movArt   	2	boat      	2	boat10      	29	not_alive	0	moves	1	artefact	0	n	0	0    	 	0.0	0	114.25429349998001	114.35421579983101	0.09992229985073199
87556	100	106	stimuli\nonmovNat\rock\nmn_rock07.jpg            	1	2	1	nmn_rock07.jpg       	nonmovNat	5	rock      	30	rock07      	306	not_alive	0	still	0	natural 	1	n	0	0    	 	0.0	0	114.404315599706	114.504215899855	0.0999003001488745
87706	100	107	stimuli\movNat\hotspring\mn_hotspring02.jpg      	1	2	1	mn_hotspring02.jpg   	movNat   	3	hotspring 	21	hotspring02 	211	not_alive	0	moves	1	natural 	1	n	0	0    	 	0.0	0	114.554296900053	114.654227300081	0.0999304000288248
87856	100	108	stimuli\movArt\boat\ma_boat07.jpg                	1	2	1	ma_boat07.jpg        	movArt   	2	boat      	2	boat07      	26	not_alive	0	moves	1	artefact	0	n	0	0    	 	0.0	0	114.704318100121	114.804230500013	0.0999123998917639
88006	100	109	stimuli\movNat\fire\mn_fire04.jpg                	1	2	1	mn_fire04.jpg        	movNat   	3	fire      	15	fire04      	153	not_alive	0	moves	1	natural 	1	n	0	0    	 	0.0	0	114.85430469969299	114.95428710011801	0.0999824004247784
88156	100	110	stimuli\movArt\car\ma_car10.jpg                  	1	2	1	ma_car10.jpg         	movArt   	2	car       	5	car10       	59	not_alive	0	moves	1	artefact	0	n	0	0    	 	0.0	0	115.004255000036	115.104228799697	0.0999737996608018
88306	100	111	stimuli\plant2\moss\plant_moss10.jpg             	1	2	1	plant_moss10.jpg     	plant2   	7	moss      	25	moss10      	259	alive    	1	still	0	natural 	1	n	0	0    	 	0.0	0	115.154304800089	115.25421709986401	0.0999122997745871
88456	100	112	stimuli\movNat\waterfall\mn_waterfall06.jpg      	1	2	1	mn_waterfall06.jpg   	movNat   	3	waterfall 	37	waterfall06 	375	not_alive	0	moves	1	natural 	1	n	0	0    	 	0.0	0	115.30428279982901	115.404223899823	0.0999410999938845
88606	100	113	stimuli\nonmovArt\headphones\nma_headphones09.jpg	1	2	1	nma_headphones09.jpg 	nonmovArt	4	headphones	18	headphones09	188	not_alive	0	still	0	artefact	0	n	0	0    	 	0.0	0	115.45430340012501	115.554210099857	0.09990669973194599
88756	100	114	stimuli\plant2\lemontree\plant_lemontree02.jpg   	1	2	1	plant_lemontree02.jpg	plant2   	7	lemontree 	22	lemontree02 	221	alive    	1	still	0	natural 	1	n	0	0    	 	0.0	0	115.604288399685	115.70422190008699	0.0999335004016757
88906	100	115	stimuli\movNat\fire\mn_fire03.jpg                	1	2	1	mn_fire03.jpg        	movNat   	3	fire      	15	fire03      	152	not_alive	0	moves	1	natural 	1	n	0	0    	 	0.0	0	115.754277099855	115.854204100091	0.0999270002357661
89056	100	116	stimuli\plant\cactus\plant_cactus10.jpg          	1	2	1	plant_cactus10.jpg   	plant    	6	cactus    	4	cactus10    	49	alive    	1	still	0	natural 	1	n	0	0    	 	0.0	0	115.904286100063	116.00418990012301	0.0999038000591099
89206	100	117	stimuli\animals2\bee\animal_bee01.jpg            	1	2	1	animal_bee01.jpg     	animals2 	1	bee       	0	bee01       	0	alive    	1	moves	1	natural 	1	n	0	0    	 	0.0	0	116.054292100016	116.15421780012501	0.099925700109452
89356	100	118	stimuli\plant\cactus\plant_cactus01.jpg          	1	2	1	plant_cactus01.jpg   	plant    	6	cactus    	4	cactus01    	40	alive    	1	still	0	natural 	1	n	0	0    	 	0.0	0	116.204289599787	116.304210700095	0.0999211003072559
89506	100	119	stimuli\animals2\whale\animal_whale03.jpg        	1	2	1	animal_whale03.jpg   	animals2 	1	whale     	39	whale03     	392	alive    	1	moves	1	natural 	1	n	0	0    	 	0.0	0	116.354294099845	116.45420369971501	0.0999095998704433
89656	100	120	stimuli\animals2\tiger\animal_tiger07.jpg        	1	2	1	animal_tiger07.jpg   	animals2 	1	tiger     	33	tiger07     	336	alive    	1	moves	1	natural 	1	n	0	0    	 	0.0	0	116.504286899697	116.60420899977899	0.0999221000820398
89806	100	121	stimuli\animals2\pigeon\animal_pigeon09.jpg      	1	2	1	animal_pigeon09.jpg  	animals2 	1	pigeon    	28	pigeon09    	288	alive    	1	moves	1	natural 	1	n	0	0    	 	0.0	0	116.654298299924	116.754281399772	0.099983099848032
89956	100	122	stimuli\movNat\waterfall\mn_waterfall02.jpg      	1	2	1	mn_waterfall02.jpg   	movNat   	3	waterfall 	37	waterfall02 	371	not_alive	0	moves	1	natural 	1	n	0	0    	 	0.0	0	116.804296100046	116.904216799885	0.0999206998385489
90106	100	123	stimuli\animals2\whale\animal_whale03.jpg        	1	2	1	animal_whale03.jpg   	animals2 	1	whale     	39	whale03     	392	alive    	1	moves	1	natural 	1	n	0	0    	 	0.0	0	116.95430930005399	117.054204399697	0.0998950996436178
90256	100	124	stimuli\animals2\whale\animal_whale09.jpg        	1	2	1	animal_whale09.jpg   	animals2 	1	whale     	39	whale09     	398	alive    	1	moves	1	natural 	1	n	0	0    	 	0.0	0	117.10426810011299	117.204195300117	0.0999272000044584
90406	100	125	stimuli\animals\dog\animal_dog09.jpg             	1	2	1	animal_dog09.jpg     	animals  	0	dog       	11	dog09       	118	alive    	1	moves	1	natural 	1	n	0	0    	 	0.0	0	117.254277999979	117.35418740008001	0.09990940010175099
90556	100	126	stimuli\nonmovArt\bench\nma_bench05.jpg          	1	2	1	nma_bench05.jpg      	nonmovArt	4	bench     	1	bench05     	14	not_alive	0	still	0	artefact	0	n	0	0    	 	0.0	0	117.40428279992202	117.50423870002899	0.09995590010657901
90706	100	127	stimuli\movNat\fire\mn_fire04.jpg                	1	2	1	mn_fire04.jpg        	movNat   	3	fire      	15	fire04      	153	not_alive	0	moves	1	natural 	1	n	0	0    	 	0.0	0	117.554273299873	117.65419350005699	0.0999202001839876
90856	100	128	stimuli\movNat\fire\mn_fire07.jpg                	1	2	1	mn_fire07.jpg        	movNat   	3	fire      	15	fire07      	156	not_alive	0	moves	1	natural 	1	n	0	0    	 	0.0	0	117.704289599787	117.804204799701	0.0999151999130845
91006	100	129	stimuli\animals2\whale\animal_whale05.jpg        	1	2	1	animal_whale05.jpg   	animals2 	1	whale     	39	whale05     	394	alive    	1	moves	1	natural 	1	n	0	0    	 	0.0	0	117.854270999786	117.954197899904	0.0999269001185894
91156	100	130	stimuli\nonmovArt\clothespeg\nma_clothespeg07.jpg	1	2	1	nma_clothespeg07.jpg 	nonmovArt	4	clothespeg	8	clothespeg07	86	not_alive	0	still	0	artefact	0	n	0	0    	 	0.0	0	118.00427639996599	118.10419279988899	0.0999163999222219
91306	100	131	stimuli\nonmovArt\lock\nma_lock08.jpg            	1	2	1	nma_lock08.jpg       	nonmovArt	4	lock      	24	lock08      	247	not_alive	0	still	0	artefact	0	n	0	0    	 	0.0	0	118.15427599987	118.254194799811	0.0999187999404966
91456	100	132	stimuli\movArt\bus\ma_bus08.jpg                  	1	2	1	ma_bus08.jpg         	movArt   	2	bus       	3	bus08       	37	not_alive	0	moves	1	artefact	0	n	0	0    	 	0.0	0	118.304258699995	118.40420629968901	0.0999475996941328
91606	100	133	stimuli\animals2\lemur\animal_lemur01.jpg        	1	2	1	animal_lemur01.jpg   	animals2 	1	lemur     	23	lemur01     	230	alive    	1	moves	1	natural 	1	n	0	0    	 	0.0	0	118.454289599787	118.554284699727	0.0999950999394059
91756	100	134	stimuli\movNat\river\mn_river01.jpg              	1	2	1	mn_river01.jpg       	movNat   	3	river     	29	river01     	290	not_alive	0	moves	1	natural 	1	n	0	0    	 	0.0	0	118.60426389984801	118.704183300026	0.09991940017789601
91906	100	135	stimuli\animals\eagle\animal_eagle07.jpg         	1	2	1	animal_eagle07.jpg   	animals  	0	eagle     	13	eagle07     	136	alive    	1	moves	1	natural 	1	n	1	0    	 	0.0	0	118.75426069973	118.85417870013	0.0999180004000663
92056	100	136	stimuli\nonmovArt\clothespeg\nma_clothespeg02.jpg	1	2	1	nma_clothespeg02.jpg 	nonmovArt	4	clothespeg	8	clothespeg02	81	not_alive	0	still	0	artefact	0	n	1	0    	 	0.0	0	118.90426139999201	119.00418479973499	0.0999233997426927
92206	100	137	stimuli\plant\grass\plant_grass05.jpg            	1	2	1	plant_grass05.jpg    	plant    	6	grass     	17	grass05     	174	alive    	1	still	0	natural 	1	n	0	1    	f	0.14205699972808403	1	119.05425939988301	119.154174699914	0.0999153000302612
92356	100	138	stimuli\movNat\river\mn_river05.jpg              	1	2	1	mn_river05.jpg       	movNat   	3	river     	29	river05     	294	not_alive	0	moves	1	natural 	1	n	1	0    	 	0.0	0	119.20426200004299	119.30417179968201	0.0999097996391356
92506	100	139	stimuli\plant\vine\plant_vine07.jpg              	1	2	1	plant_vine07.jpg     	plant    	6	vine      	36	vine07      	366	alive    	1	still	0	natural 	1	n	0	0    	 	0.0	0	119.354254600126	119.454181999899	0.0999273997731506
92656	100	140	stimuli\plant2\moss\plant_moss08.jpg             	1	2	1	plant_moss08.jpg     	plant2   	7	moss      	25	moss08      	257	alive    	1	still	0	natural 	1	n	0	1    	f	0.391944099683315	1	119.50424439972299	119.604169900063	0.0999255003407597
92806	100	141	stimuli\plant\flower\plant_flower04.jpg          	1	2	1	plant_flower04.jpg   	plant    	6	flower    	16	flower04    	163	alive    	1	still	0	natural 	1	n	0	0    	 	0.0	0	119.654234899674	119.754178999923	0.0999441002495586
92956	100	142	stimuli\movNat\waves\mn_waves07.jpg              	1	2	1	mn_waves07.jpg       	movNat   	3	waves     	38	waves07     	386	not_alive	0	moves	1	natural 	1	n	0	0    	 	0.0	0	119.804239999969	119.90417539980301	0.0999353998340666
93106	100	143	stimuli\animals2\tiger\animal_tiger04.jpg        	1	2	1	animal_tiger04.jpg   	animals2 	1	tiger     	33	tiger04     	333	alive    	1	moves	1	natural 	1	n	0	0    	 	0.0	0	119.954240399878	120.054161099717	0.0999206998385489
93256	100	144	stimuli\plant2\palmtree\plant_palmtree06.jpg     	1	2	1	plant_palmtree06.jpg 	plant2   	7	palmtree  	27	palmtree06  	275	alive    	1	still	0	natural 	1	n	0	0    	 	0.0	0	120.10423990013099	120.20415259990801	0.0999126997776329
93406	100	145	stimuli\plant2\clover\plant_clover06.jpg         	1	2	1	plant_clover06.jpg   	plant2   	7	clover    	9	clover06    	95	alive    	1	still	0	natural 	1	n	0	0    	 	0.0	0	120.254249100108	120.354236099869	0.0999869997613132
93557	100	146	stimuli\movNat\hotspring\mn_hotspring07.jpg      	1	2	1	mn_hotspring07.jpg   	movNat   	3	hotspring 	21	hotspring07 	216	not_alive	0	moves	1	natural 	1	n	0	0    	 	0.0	0	120.404344699811	120.50417269999201	0.0998280001804232
93706	100	147	stimuli\nonmovNat\cliff\nmn_cliff06.jpg          	1	2	1	nmn_cliff06.jpg      	nonmovNat	5	cliff     	7	cliff06     	75	not_alive	0	still	0	natural 	1	n	0	0    	 	0.0	0	120.55425429996099	120.65416319994301	0.0999088999815285
93856	100	148	stimuli\movArt\bus\ma_bus05.jpg                  	1	2	1	ma_bus05.jpg         	movArt   	2	bus       	3	bus05       	34	not_alive	0	moves	1	artefact	0	n	0	0    	 	0.0	0	120.70423999987499	120.80416289996401	0.0999229000881314
94006	100	149	stimuli\movArt\train\ma_train06.jpg              	1	2	1	ma_train06.jpg       	movArt   	2	train     	34	train06     	345	not_alive	0	moves	1	artefact	0	n	0	0    	 	0.0	0	120.85423049982599	120.95416519977199	0.0999346999451518
94156	100	150	stimuli\movArt\car\ma_car04.jpg                  	1	2	1	ma_car04.jpg         	movArt   	2	car       	5	car04       	53	not_alive	0	moves	1	artefact	0	n	0	0    	 	0.0	0	121.004239199683	121.104160800111	0.0999216004274785
94306	100	151	stimuli\nonmovArt\headphones\nma_headphones04.jpg	1	2	1	nma_headphones04.jpg 	nonmovArt	4	headphones	18	headphones04	183	not_alive	0	still	0	artefact	0	n	0	0    	 	0.0	0	121.154235200025	121.254155599978	0.0999203999526798
94456	100	152	stimuli\animals\horse\animal_horse01.jpg         	1	2	1	animal_horse01.jpg   	animals  	0	horse     	20	horse01     	200	alive    	1	moves	1	natural 	1	n	0	0    	 	0.0	0	121.304216799792	121.404162999708	0.0999461999163031
94606	100	153	stimuli\nonmovArt\lock\nma_lock03.jpg            	1	2	1	nma_lock03.jpg       	nonmovArt	4	lock      	24	lock03      	242	not_alive	0	still	0	artefact	0	n	0	0    	 	0.0	0	121.454229400028	121.55416100006501	0.0999316000379622
94756	100	154	stimuli\movArt\helicopter\ma_helicopter04.jpg    	1	2	1	ma_helicopter04.jpg  	movArt   	2	helicopter	19	helicopter04	193	not_alive	0	moves	1	artefact	0	n	0	0    	 	0.0	0	121.604242499918	121.704146499746	0.0999039998278021
94906	100	155	stimuli\movNat\fire\mn_fire10.jpg                	1	2	1	mn_fire10.jpg        	movNat   	3	fire      	15	fire10      	159	not_alive	0	moves	1	natural 	1	n	0	0    	 	0.0	0	121.754222199786	121.85413939971501	0.0999171999283135
95056	100	156	stimuli\plant2\clover\plant_clover07.jpg         	1	2	1	plant_clover07.jpg   	plant2   	7	clover    	9	clover07    	96	alive    	1	still	0	natural 	1	n	0	0    	 	0.0	0	121.904225399718	122.004149599932	0.0999242002144456
95206	100	157	stimuli\movNat\river\mn_river09.jpg              	1	2	1	mn_river09.jpg       	movNat   	3	river     	29	river09     	298	not_alive	0	moves	1	natural 	1	n	0	0    	 	0.0	0	122.05424239998699	122.15416730009	0.0999249001033604
95356	100	158	stimuli\plant2\clover\plant_clover03.jpg         	1	2	1	plant_clover03.jpg   	plant2   	7	clover    	9	clover03    	92	alive    	1	still	0	natural 	1	n	0	0    	 	0.0	0	122.204223999754	122.30417629983299	0.0999523000791668
95506	100	159	stimuli\animals\dolphin\animal_dolphin01.jpg     	1	2	1	animal_dolphin01.jpg 	animals  	0	dolphin   	12	dolphin01   	120	alive    	1	moves	1	natural 	1	n	0	0    	 	0.0	0	122.354144299869	122.45414320006999	0.0999989002011716
98840	100	160	stimuli\nonmovNat\cliff\nmn_cliff04.jpg          	1	3	1	nmn_cliff04.jpg      	nonmovNat	5	cliff     	7	cliff04     	73	not_alive	0	still	0	natural 	1	n	0	0    	 	0.0	0	125.687548199669	125.787411899772	0.0998637001030147
98990	100	161	stimuli\nonmovArt\headphones\nma_headphones04.jpg	1	3	1	nma_headphones04.jpg 	nonmovArt	4	headphones	18	headphones04	183	not_alive	0	still	0	artefact	0	n	0	0    	 	0.0	0	125.837516699918	125.937434199732	0.0999174998141825
99140	100	162	stimuli\plant\vine\plant_vine03.jpg              	1	3	1	plant_vine03.jpg     	plant    	6	vine      	36	vine03      	362	alive    	1	still	0	natural 	1	n	0	0    	 	0.0	0	125.9874960999	126.087443499826	0.0999473999254405
99290	100	163	stimuli\plant\cactus\plant_cactus05.jpg          	1	3	1	plant_cactus05.jpg   	plant    	6	cactus    	4	cactus05    	44	alive    	1	still	0	natural 	1	n	0	0    	 	0.0	0	126.137521099765	126.237426899839	0.0999058000743389
99440	100	164	stimuli\plant\flower\plant_flower02.jpg          	1	3	1	plant_flower02.jpg   	plant    	6	flower    	16	flower02    	161	alive    	1	still	0	natural 	1	n	0	0    	 	0.0	0	126.287525000051	126.387404399924	0.0998793998733162
99590	100	165	stimuli\nonmovNat\crystal\nmn_crystal08.jpg      	1	3	1	nmn_crystal08.jpg    	nonmovNat	5	crystal   	10	crystal08   	107	not_alive	0	still	0	natural 	1	n	0	0    	 	0.0	0	126.437513200101	126.537420999724	0.0999077996239066
99740	100	166	stimuli\nonmovNat\crystal\nmn_crystal09.jpg      	1	3	1	nmn_crystal09.jpg    	nonmovNat	5	crystal   	10	crystal09   	108	not_alive	0	still	0	natural 	1	n	0	0    	 	0.0	0	126.587478700094	126.68741740007	0.0999386999756097
99890	100	167	stimuli\nonmovArt\lock\nma_lock10.jpg            	1	3	1	nma_lock10.jpg       	nonmovArt	4	lock      	24	lock10      	249	not_alive	0	still	0	artefact	0	n	0	0    	 	0.0	0	126.73752179974701	126.83744899975099	0.0999272000044584
100040	100	168	stimuli\plant\flower\plant_flower09.jpg          	1	3	1	plant_flower09.jpg   	plant    	6	flower    	16	flower09    	168	alive    	1	still	0	natural 	1	n	0	0    	 	0.0	0	126.887576099951	126.98741480009599	0.099838700145483
100190	100	169	stimuli\plant2\moss\plant_moss06.jpg             	1	3	1	plant_moss06.jpg     	plant2   	7	moss      	25	moss06      	255	alive    	1	still	0	natural 	1	n	0	0    	 	0.0	0	127.03760589985201	127.137422199827	0.0998162999749183
100340	100	170	stimuli\plant\grass\plant_grass05.jpg            	1	3	1	plant_grass05.jpg    	plant    	6	grass     	17	grass05     	174	alive    	1	still	0	natural 	1	n	0	0    	 	0.0	0	127.18748559988998	127.287425899878	0.0999402999877929
100490	100	171	stimuli\animals\eagle\animal_eagle02.jpg         	1	3	1	animal_eagle02.jpg   	animals  	0	eagle     	13	eagle02     	131	alive    	1	moves	1	natural 	1	n	0	0    	 	0.0	0	127.337499999907	127.437428199686	0.0999281997792422
100640	100	172	stimuli\animals2\pigeon\animal_pigeon07.jpg      	1	3	1	animal_pigeon07.jpg  	animals2 	1	pigeon    	28	pigeon07    	286	alive    	1	moves	1	natural 	1	n	0	0    	 	0.0	0	127.48749249987301	127.587398599833	0.0999060999602079
100790	100	173	stimuli\animals\horse\animal_horse03.jpg         	1	3	1	animal_horse03.jpg   	animals  	0	horse     	20	horse03     	202	alive    	1	moves	1	natural 	1	n	0	0    	 	0.0	0	127.637492300011	127.737423199695	0.09993089968338599
100940	100	174	stimuli\plant\cactus\plant_cactus02.jpg          	1	3	1	plant_cactus02.jpg   	plant    	6	cactus    	4	cactus02    	41	alive    	1	still	0	natural 	1	n	0	0    	 	0.0	0	127.787465899717	127.88741069985599	0.0999448001384735
101090	100	175	stimuli\nonmovNat\shell\nmn_shell08.jpg          	1	3	1	nmn_shell08.jpg      	nonmovNat	5	shell     	32	shell08     	327	not_alive	0	still	0	natural 	1	n	0	0    	 	0.0	0	127.93750529969101	128.03743149992098	0.0999262002296745
101240	100	176	stimuli\nonmovNat\sand\nmn_sand03.jpg            	1	3	1	nmn_sand03.jpg       	nonmovNat	5	sand      	31	sand03      	312	not_alive	0	still	0	natural 	1	n	0	0    	 	0.0	0	128.087493899744	128.187386899721	0.0998929999768734
101390	100	177	stimuli\plant2\palmtree\plant_palmtree08.jpg     	1	3	1	plant_palmtree08.jpg 	plant2   	7	palmtree  	27	palmtree08  	277	alive    	1	still	0	natural 	1	n	1	0    	 	0.0	0	128.237489699852	128.337421599776	0.0999318999238312
101540	100	178	stimuli\movArt\train\ma_train01.jpg              	1	3	1	ma_train01.jpg       	movArt   	2	train     	34	train01     	340	not_alive	0	moves	1	artefact	0	n	0	0    	 	0.0	0	128.387482099701	128.487424799707	0.0999427000060677
101690	100	179	stimuli\plant2\fern\plant_fern06.jpg             	1	3	1	plant_fern06.jpg     	plant2   	7	fern      	14	fern06      	145	alive    	1	still	0	natural 	1	n	0	1    	f	0.391973600257188	1	128.537492999807	128.637462699786	0.0999696999788284
101840	100	180	stimuli\animals2\lemur\animal_lemur09.jpg        	1	3	1	animal_lemur09.jpg   	animals2 	1	lemur     	23	lemur09     	238	alive    	1	moves	1	natural 	1	n	0	0    	 	0.0	0	128.687593199778	128.787394499872	0.0998013000935316
101990	100	181	stimuli\nonmovArt\bench\nma_bench06.jpg          	1	3	1	nma_bench06.jpg      	nonmovArt	4	bench     	1	bench06     	15	not_alive	0	still	0	artefact	0	n	0	0    	 	0.0	0	128.837492499966	128.937646399718	0.10015389975160402
102140	100	182	stimuli\nonmovNat\sand\nmn_sand08.jpg            	1	3	1	nmn_sand08.jpg       	nonmovNat	5	sand      	31	sand08      	317	not_alive	0	still	0	natural 	1	n	0	0    	 	0.0	0	128.987454399932	129.08739429991698	0.0999398999847471
102290	100	183	stimuli\movArt\boat\ma_boat02.jpg                	1	3	1	ma_boat02.jpg        	movArt   	2	boat      	2	boat02      	21	not_alive	0	moves	1	artefact	0	n	0	0    	 	0.0	0	129.137485399842	129.237401199993	0.0999158001504838
102440	100	184	stimuli\nonmovNat\rock\nmn_rock06.jpg            	1	3	1	nmn_rock06.jpg       	nonmovNat	5	rock      	30	rock06      	305	not_alive	0	still	0	natural 	1	n	0	0    	 	0.0	0	129.287471000105	129.387387499679	0.0999164995737373
102590	100	185	stimuli\movArt\car\ma_car05.jpg                  	1	3	1	ma_car05.jpg         	movArt   	2	car       	5	car05       	54	not_alive	0	moves	1	artefact	0	n	0	0    	 	0.0	0	129.437479199842	129.537400799803	0.0999215999618172
102740	100	186	stimuli\plant2\palmtree\plant_palmtree09.jpg     	1	3	1	plant_palmtree09.jpg 	plant2   	7	palmtree  	27	palmtree09  	278	alive    	1	still	0	natural 	1	n	1	0    	 	0.0	0	129.587447399739	129.68739950005	0.0999521003104746
102890	100	187	stimuli\movArt\boat\ma_boat06.jpg                	1	3	1	ma_boat06.jpg        	movArt   	2	boat      	2	boat06      	25	not_alive	0	moves	1	artefact	0	n	0	0    	 	0.0	0	129.737491199747	129.837408700027	0.0999175002798438
103040	100	188	stimuli\animals\dolphin\animal_dolphin01.jpg     	1	3	1	animal_dolphin01.jpg 	animals  	0	dolphin   	12	dolphin01   	120	alive    	1	moves	1	natural 	1	n	0	1    	f	0.392003200016916	1	129.887470799964	129.98737199977	0.0999011998064816
103190	100	189	stimuli\nonmovArt\mug\nma_mug08.jpg              	1	3	1	nma_mug08.jpg        	nonmovArt	4	mug       	26	mug08       	267	not_alive	0	still	0	artefact	0	n	0	0    	 	0.0	0	130.037483599968	130.137392200064	0.0999086000956595
103340	100	190	stimuli\plant\cactus\plant_cactus05.jpg          	1	3	1	plant_cactus05.jpg   	plant    	6	cactus    	4	cactus05    	44	alive    	1	still	0	natural 	1	n	0	0    	 	0.0	0	130.187458399683	130.28739030007299	0.0999319003894925
103490	100	191	stimuli\animals\cat\animal_cat03.jpg             	1	3	1	animal_cat03.jpg     	animals  	0	cat       	6	cat03       	62	alive    	1	moves	1	natural 	1	n	0	0    	 	0.0	0	130.337473399937	130.437462700065	0.0999893001280725
103640	100	192	stimuli\movNat\waterfall\mn_waterfall01.jpg      	1	3	1	mn_waterfall01.jpg   	movNat   	3	waterfall 	37	waterfall01 	370	not_alive	0	moves	1	natural 	1	n	0	0    	 	0.0	0	130.487534499727	130.587367299944	0.0998328002169728
103790	100	193	stimuli\animals2\pigeon\animal_pigeon05.jpg      	1	3	1	animal_pigeon05.jpg  	animals2 	1	pigeon    	28	pigeon05    	284	alive    	1	moves	1	natural 	1	n	0	0    	 	0.0	0	130.637462699786	130.737390100025	0.0999274002388119
103940	100	194	stimuli\plant\grass\plant_grass02.jpg            	1	3	1	plant_grass02.jpg    	plant    	6	grass     	17	grass02     	171	alive    	1	still	0	natural 	1	n	0	0    	 	0.0	0	130.787426699884	130.88737779995398	0.0999511000700295
104090	100	195	stimuli\animals\eagle\animal_eagle07.jpg         	1	3	1	animal_eagle07.jpg   	animals  	0	eagle     	13	eagle07     	136	alive    	1	moves	1	natural 	1	n	0	0    	 	0.0	0	130.937469599769	131.037378800102	0.0999092003330588
104240	100	196	stimuli\animals\dolphin\animal_dolphin09.jpg     	1	3	1	animal_dolphin09.jpg 	animals  	0	dolphin   	12	dolphin09   	128	alive    	1	moves	1	natural 	1	n	0	0    	 	0.0	0	131.087469699793	131.18735100003	0.0998813002370298
104390	100	197	stimuli\animals2\tiger\animal_tiger10.jpg        	1	3	1	animal_tiger10.jpg   	animals2 	1	tiger     	33	tiger10     	339	alive    	1	moves	1	natural 	1	n	0	0    	 	0.0	0	131.237447899766	131.33738199994	0.0999341001734137
104540	100	198	stimuli\movArt\train\ma_train01.jpg              	1	3	1	ma_train01.jpg       	movArt   	2	train     	34	train01     	340	not_alive	0	moves	1	artefact	0	n	0	0    	 	0.0	0	131.387431200128	131.487382600084	0.0999513999558985
104690	100	199	stimuli\plant\vine\plant_vine09.jpg              	1	3	1	plant_vine09.jpg     	plant    	6	vine      	36	vine09      	368	alive    	1	still	0	natural 	1	n	0	0    	 	0.0	0	131.537451599725	131.637383599766	0.09993200004100801
104840	100	200	stimuli\movArt\boat\ma_boat08.jpg                	1	3	1	ma_boat08.jpg        	movArt   	2	boat      	2	boat08      	27	not_alive	0	moves	1	artefact	0	n	0	0    	 	0.0	0	131.687443099916	131.78733649989599	0.0998933999799192
104990	100	201	stimuli\plant2\lemontree\plant_lemontree04.jpg   	1	3	1	plant_lemontree04.jpg	plant2   	7	lemontree 	22	lemontree04 	223	alive    	1	still	0	natural 	1	n	0	0    	 	0.0	0	131.837445199955	131.937367399689	0.0999221997335553
105140	100	202	stimuli\animals2\bee\animal_bee07.jpg            	1	3	1	animal_bee07.jpg     	animals2 	1	bee       	0	bee07       	6	alive    	1	moves	1	natural 	1	n	0	0    	 	0.0	0	131.98742919973998	132.087374099996	0.0999449002556502
105290	100	203	stimuli\plant2\lemontree\plant_lemontree10.jpg   	1	3	1	plant_lemontree10.jpg	plant2   	7	lemontree 	22	lemontree10 	229	alive    	1	still	0	natural 	1	n	0	0    	 	0.0	0	132.137438199949	132.237529499922	0.10009129997342801
105440	100	204	stimuli\movArt\bus\ma_bus02.jpg                  	1	3	1	ma_bus02.jpg         	movArt   	2	bus       	3	bus02       	31	not_alive	0	moves	1	artefact	0	n	0	0    	 	0.0	0	132.287602100056	132.387454699725	0.0998525996692478
105590	100	205	stimuli\movNat\hotspring\mn_hotspring06.jpg      	1	3	1	mn_hotspring06.jpg   	movNat   	3	hotspring 	21	hotspring06 	215	not_alive	0	moves	1	natural 	1	n	0	0    	 	0.0	0	132.437434900086	132.53737109992701	0.0999361998401582
105740	100	206	stimuli\animals\cat\animal_cat07.jpg             	1	3	1	animal_cat07.jpg     	animals  	0	cat       	6	cat07       	66	alive    	1	moves	1	natural 	1	n	0	0    	 	0.0	0	132.587415399961	132.687361400109	0.0999460001476109
105890	100	207	stimuli\animals2\bee\animal_bee05.jpg            	1	3	1	animal_bee05.jpg     	animals2 	1	bee       	0	bee05       	4	alive    	1	moves	1	natural 	1	n	0	0    	 	0.0	0	132.737429599743	132.83736709971	0.0999374999664724
106040	100	208	stimuli\nonmovNat\cliff\nmn_cliff09.jpg          	1	3	1	nmn_cliff09.jpg      	nonmovNat	5	cliff     	7	cliff09     	78	not_alive	0	still	0	natural 	1	n	0	0    	 	0.0	0	132.887450499926	132.987337199971	0.0998867000453174
106190	100	209	stimuli\animals\cat\animal_cat07.jpg             	1	3	1	animal_cat07.jpg     	animals  	0	cat       	6	cat07       	66	alive    	1	moves	1	natural 	1	n	0	0    	 	0.0	0	133.037434599828	133.13736859988398	0.0999340000562369
106340	100	210	stimuli\plant2\fern\plant_fern07.jpg             	1	3	1	plant_fern07.jpg     	plant2   	7	fern      	14	fern07      	146	alive    	1	still	0	natural 	1	n	0	0    	 	0.0	0	133.187437499873	133.287365099881	0.0999276000075042
106490	100	211	stimuli\nonmovNat\shell\nmn_shell01.jpg          	1	3	1	nmn_shell01.jpg      	nonmovNat	5	shell     	32	shell01     	320	not_alive	0	still	0	natural 	1	n	0	0    	 	0.0	0	133.337434200104	133.437359800097	0.0999255999922752
106640	100	212	stimuli\animals2\bee\animal_bee07.jpg            	1	3	1	animal_bee07.jpg     	animals2 	1	bee       	0	bee07       	6	alive    	1	moves	1	natural 	1	n	0	0    	 	0.0	0	133.487437699921	133.587325999979	0.0998883000575006
106790	100	213	stimuli\nonmovNat\crystal\nmn_crystal05.jpg      	1	3	1	nmn_crystal05.jpg    	nonmovNat	5	crystal   	10	crystal05   	104	not_alive	0	still	0	natural 	1	n	0	0    	 	0.0	0	133.637431600131	133.737343200017	0.0999115998856723
106940	100	214	stimuli\plant2\lemontree\plant_lemontree09.jpg   	1	3	1	plant_lemontree09.jpg	plant2   	7	lemontree 	22	lemontree09 	228	alive    	1	still	0	natural 	1	n	0	0    	 	0.0	0	133.78740109968902	133.887358800042	0.0999577003531158
107090	100	215	stimuli\plant2\moss\plant_moss06.jpg             	1	3	1	plant_moss06.jpg     	plant2   	7	moss      	25	moss06      	255	alive    	1	still	0	natural 	1	n	0	0    	 	0.0	0	133.93742789979999	134.037453699857	0.10002580005675599
107240	100	216	stimuli\movNat\waterfall\mn_waterfall05.jpg      	1	3	1	mn_waterfall05.jpg   	movNat   	3	waterfall 	37	waterfall05 	374	not_alive	0	moves	1	natural 	1	n	0	0    	 	0.0	0	134.087427499704	134.18732819985598	0.0999007001519203
107390	100	217	stimuli\nonmovNat\shell\nmn_shell05.jpg          	1	3	1	nmn_shell05.jpg      	nonmovNat	5	shell     	32	shell05     	324	not_alive	0	still	0	natural 	1	n	0	0    	 	0.0	0	134.237431500107	134.337340099737	0.0999085996299982
107540	100	218	stimuli\nonmovArt\mug\nma_mug09.jpg              	1	3	1	nma_mug09.jpg        	nonmovArt	4	mug       	26	mug09       	268	not_alive	0	still	0	artefact	0	n	0	0    	 	0.0	0	134.38740599993602	134.487349099945	0.0999431000091135
107690	100	219	stimuli\movArt\helicopter\ma_helicopter02.jpg    	1	3	1	ma_helicopter02.jpg  	movArt   	2	helicopter	19	helicopter02	191	not_alive	0	moves	1	artefact	0	n	0	0    	 	0.0	0	134.53742889966801	134.637350900099	0.0999220004305243
107840	100	220	stimuli\nonmovArt\bench\nma_bench08.jpg          	1	3	1	nma_bench08.jpg      	nonmovArt	4	bench     	1	bench08     	17	not_alive	0	still	0	artefact	0	n	0	0    	 	0.0	0	134.68743139971	134.787310899701	0.099879499990493
107990	100	221	stimuli\movNat\waves\mn_waves02.jpg              	1	3	1	mn_waves02.jpg       	movNat   	3	waves     	38	waves02     	381	not_alive	0	moves	1	natural 	1	n	0	0    	 	0.0	0	134.837413799949	134.937346799765	0.0999329998157918
108140	100	222	stimuli\plant2\fern\plant_fern01.jpg             	1	3	1	plant_fern01.jpg     	plant2   	7	fern      	14	fern01      	140	alive    	1	still	0	natural 	1	n	0	0    	 	0.0	0	134.987377899699	135.08732869988302	0.0999508001841604
108290	100	223	stimuli\nonmovNat\rock\nmn_rock09.jpg            	1	3	1	nmn_rock09.jpg       	nonmovNat	5	rock      	30	rock09      	308	not_alive	0	still	0	natural 	1	n	0	0    	 	0.0	0	135.137417699676	135.237337599974	0.0999199002981186
108440	100	224	stimuli\movArt\car\ma_car09.jpg                  	1	3	1	ma_car09.jpg         	movArt   	2	car       	5	car09       	58	not_alive	0	moves	1	artefact	0	n	0	0    	 	0.0	0	135.287428299896	135.387303299736	0.0998749998398125
108590	100	225	stimuli\plant\tree\plant_tree03.jpg              	1	3	1	plant_tree03.jpg     	plant    	6	tree      	35	tree03      	352	alive    	1	still	0	natural 	1	n	0	0    	 	0.0	0	135.437414299697	135.537334700115	0.0999204004183411
108740	100	226	stimuli\movArt\helicopter\ma_helicopter03.jpg    	1	3	1	ma_helicopter03.jpg  	movArt   	2	helicopter	19	helicopter03	192	not_alive	0	moves	1	artefact	0	n	0	0    	 	0.0	0	135.587390900124	135.687339399941	0.0999484998174011
108890	100	227	stimuli\nonmovArt\headphones\nma_headphones09.jpg	1	3	1	nma_headphones09.jpg 	nonmovArt	4	headphones	18	headphones09	188	not_alive	0	still	0	artefact	0	n	0	0    	 	0.0	0	135.737409099936	135.83752920012898	0.10012010019272599
109040	100	228	stimuli\movNat\waves\mn_waves05.jpg              	1	3	1	mn_waves05.jpg       	movNat   	3	waves     	38	waves05     	384	not_alive	0	moves	1	natural 	1	n	0	0    	 	0.0	0	135.887429799885	135.98735309997602	0.0999233000911772
109190	100	229	stimuli\animals\dog\animal_dog03.jpg             	1	3	1	animal_dog03.jpg     	animals  	0	dog       	11	dog03       	112	alive    	1	moves	1	natural 	1	n	0	0    	 	0.0	0	136.037409499753	136.137326699682	0.0999171999283135
109340	100	230	stimuli\movNat\hotspring\mn_hotspring10.jpg      	1	3	1	mn_hotspring10.jpg   	movNat   	3	hotspring 	21	hotspring10 	219	not_alive	0	moves	1	natural 	1	n	0	0    	 	0.0	0	136.187379099894	136.287335900124	0.0999568002298474
109490	100	231	stimuli\animals2\lemur\animal_lemur02.jpg        	1	3	1	animal_lemur02.jpg   	animals2 	1	lemur     	23	lemur02     	231	alive    	1	moves	1	natural 	1	n	0	0    	 	0.0	0	136.337401499972	136.437330499757	0.0999289997853338
109640	100	232	stimuli\plant\tree\plant_tree04.jpg              	1	3	1	plant_tree04.jpg     	plant    	6	tree      	35	tree04      	353	alive    	1	still	0	natural 	1	n	0	0    	 	0.0	0	136.487400399987	136.587311999872	0.0999115998856723
109790	100	233	stimuli\nonmovArt\clothespeg\nma_clothespeg09.jpg	1	3	1	nma_clothespeg09.jpg 	nonmovArt	4	clothespeg	8	clothespeg09	88	not_alive	0	still	0	artefact	0	n	0	0    	 	0.0	0	136.63741059973802	136.73732300009598	0.0999124003574252
109940	100	234	stimuli\nonmovArt\mug\nma_mug02.jpg              	1	3	1	nma_mug02.jpg        	nonmovArt	4	mug       	26	mug02       	261	not_alive	0	still	0	artefact	0	n	0	0    	 	0.0	0	136.787370099686	136.887327800039	0.0999577003531158
110090	100	235	stimuli\nonmovNat\rock\nmn_rock09.jpg            	1	3	1	nmn_rock09.jpg       	nonmovNat	5	rock      	30	rock09      	308	not_alive	0	still	0	natural 	1	n	0	0    	 	0.0	0	136.937405500095	137.03732129978002	0.0999157996848225
110240	100	236	stimuli\animals\horse\animal_horse10.jpg         	1	3	1	animal_horse10.jpg   	animals  	0	horse     	20	horse10     	209	alive    	1	moves	1	natural 	1	n	0	0    	 	0.0	0	137.087389899883	137.187300399877	0.0999104999937117
110390	100	237	stimuli\animals\dog\animal_dog01.jpg             	1	3	1	animal_dog01.jpg     	animals  	0	dog       	11	dog01       	110	alive    	1	moves	1	natural 	1	n	0	0    	 	0.0	0	137.237416000105	137.337308399845	0.099892399739474
110540	100	238	stimuli\nonmovNat\sand\nmn_sand01.jpg            	1	3	1	nmn_sand01.jpg       	nonmovNat	5	sand      	31	sand01      	310	not_alive	0	still	0	natural 	1	n	0	0    	 	0.0	0	137.387367799878	137.487289799843	0.099921999964863
110690	100	239	stimuli\plant\tree\plant_tree02.jpg              	1	3	1	plant_tree02.jpg     	plant    	6	tree      	35	tree02      	351	alive    	1	still	0	natural 	1	n	0	0    	 	0.0	0	137.537404899951	137.637483699713	0.10007879976183198
115122	100	240	stimuli\nonmovArt\bench\nma_bench04.jpg          	1	4	1	nma_bench04.jpg      	nonmovArt	4	bench     	1	bench04     	13	not_alive	0	still	0	artefact	0	n	0	0    	 	0.0	0	141.969820099883	142.069802399725	0.0999822998419404
115272	100	241	stimuli\animals\eagle\animal_eagle04.jpg         	1	4	1	animal_eagle04.jpg   	animals  	0	eagle     	13	eagle04     	133	alive    	1	moves	1	natural 	1	n	0	0    	 	0.0	0	142.119811099954	142.21980169974302	0.0999905997887253
115422	100	242	stimuli\animals\dolphin\animal_dolphin07.jpg     	1	4	1	animal_dolphin07.jpg 	animals  	0	dolphin   	12	dolphin07   	126	alive    	1	moves	1	natural 	1	n	0	0    	 	0.0	0	142.26980719994802	142.369799399748	0.0999921998009085
115572	100	243	stimuli\plant\grass\plant_grass03.jpg            	1	4	1	plant_grass03.jpg    	plant    	6	grass     	17	grass03     	172	alive    	1	still	0	natural 	1	n	0	0    	 	0.0	0	142.41980689996902	142.519798099995	0.0999912000261247
115722	100	244	stimuli\plant\cactus\plant_cactus04.jpg          	1	4	1	plant_cactus04.jpg   	plant    	6	cactus    	4	cactus04    	43	alive    	1	still	0	natural 	1	n	0	0    	 	0.0	0	142.569804599974	142.669793900102	0.0999893001280725
115872	100	245	stimuli\plant2\clover\plant_clover01.jpg         	1	4	1	plant_clover01.jpg   	plant2   	7	clover    	9	clover01    	90	alive    	1	still	0	natural 	1	n	0	0    	 	0.0	0	142.719802499749	142.819791600108	0.0999891003593802
116022	100	246	stimuli\movNat\hotspring\mn_hotspring08.jpg      	1	4	1	mn_hotspring08.jpg   	movNat   	3	hotspring 	21	hotspring08 	217	not_alive	0	moves	1	natural 	1	n	0	0    	 	0.0	0	142.869804199785	142.969792699907	0.0999885001219809
116172	100	247	stimuli\plant2\lemontree\plant_lemontree03.jpg   	1	4	1	plant_lemontree03.jpg	plant2   	7	lemontree 	22	lemontree03 	222	alive    	1	still	0	natural 	1	n	0	0    	 	0.0	0	143.019802199677	143.119790799916	0.0999886002391576
116322	100	248	stimuli\animals2\whale\animal_whale08.jpg        	1	4	1	animal_whale08.jpg   	animals2 	1	whale     	39	whale08     	397	alive    	1	moves	1	natural 	1	n	0	0    	 	0.0	0	143.16979879979	143.269787999801	0.0999892000108957
116472	100	249	stimuli\plant2\moss\plant_moss05.jpg             	1	4	1	plant_moss05.jpg     	plant2   	7	moss      	25	moss05      	254	alive    	1	still	0	natural 	1	n	0	0    	 	0.0	0	143.31980659999	143.419785900041	0.0999793000519275
116622	100	250	stimuli\nonmovArt\mug\nma_mug10.jpg              	1	4	1	nma_mug10.jpg        	nonmovArt	4	mug       	26	mug10       	269	not_alive	0	still	0	artefact	0	n	0	0    	 	0.0	0	143.46981699997602	143.569786199834	0.0999691998586058
116772	100	251	stimuli\animals\dolphin\animal_dolphin07.jpg     	1	4	1	animal_dolphin07.jpg 	animals  	0	dolphin   	12	dolphin07   	126	alive    	1	moves	1	natural 	1	n	0	0    	 	0.0	0	143.619794100057	143.719781899825	0.0999877997674048
116922	100	252	stimuli\movNat\waves\mn_waves08.jpg              	1	4	1	mn_waves08.jpg       	movNat   	3	waves     	38	waves08     	387	not_alive	0	moves	1	natural 	1	n	0	0    	 	0.0	0	143.76978759979798	143.86978079984	0.0999932000413537
117072	100	253	stimuli\movNat\hotspring\mn_hotspring01.jpg      	1	4	1	mn_hotspring01.jpg   	movNat   	3	hotspring 	21	hotspring01 	210	not_alive	0	moves	1	natural 	1	n	0	0    	 	0.0	0	143.919790499844	144.01977999974	0.0999894998967647
117222	100	254	stimuli\plant\flower\plant_flower07.jpg          	1	4	1	plant_flower07.jpg   	plant    	6	flower    	16	flower07    	166	alive    	1	still	0	natural 	1	n	0	0    	 	0.0	0	144.06978649972	144.169778299984	0.099991800263524
117372	100	255	stimuli\animals\horse\animal_horse05.jpg         	1	4	1	animal_horse05.jpg   	animals  	0	horse     	20	horse05     	204	alive    	1	moves	1	natural 	1	n	0	0    	 	0.0	0	144.21978739975	144.319776199758	0.0999888000078499
117522	100	256	stimuli\plant\flower\plant_flower07.jpg          	1	4	1	plant_flower07.jpg   	plant    	6	flower    	16	flower07    	166	alive    	1	still	0	natural 	1	n	0	0    	 	0.0	0	144.369785400108	144.46977369999502	0.0999882998876273
117672	100	257	stimuli\plant\tree\plant_tree02.jpg              	1	4	1	plant_tree02.jpg     	plant    	6	tree      	35	tree02      	351	alive    	1	still	0	natural 	1	n	0	0    	 	0.0	0	144.51978299999598	144.61977279977899	0.0999897997826337
117822	100	258	stimuli\plant\grass\plant_grass04.jpg            	1	4	1	plant_grass04.jpg    	plant    	6	grass     	17	grass04     	173	alive    	1	still	0	natural 	1	n	0	0    	 	0.0	0	144.669782400131	144.769770400133	0.0999880000017583
117972	100	259	stimuli\plant\vine\plant_vine09.jpg              	1	4	1	plant_vine09.jpg     	plant    	6	vine      	36	vine09      	368	alive    	1	still	0	natural 	1	n	0	0    	 	0.0	0	144.819781699684	144.91977089969402	0.0999892000108957
118122	100	260	stimuli\movArt\car\ma_car03.jpg                  	1	4	1	ma_car03.jpg         	movArt   	2	car       	5	car03       	52	not_alive	0	moves	1	artefact	0	n	0	0    	 	0.0	0	144.969776799902	145.069772900082	0.099996100179851
118272	100	261	stimuli\nonmovArt\clothespeg\nma_clothespeg08.jpg	1	4	1	nma_clothespeg08.jpg 	nonmovArt	4	clothespeg	8	clothespeg08	87	not_alive	0	still	0	artefact	0	n	0	0    	 	0.0	0	145.119784899987	145.21976959984698	0.0999846998602152
118422	100	262	stimuli\plant2\clover\plant_clover10.jpg         	1	4	1	plant_clover10.jpg   	plant2   	7	clover    	9	clover10    	99	alive    	1	still	0	natural 	1	n	0	0    	 	0.0	0	145.26977449981501	145.369767100085	0.0999926002696156
118572	100	263	stimuli\movNat\waves\mn_waves04.jpg              	1	4	1	mn_waves04.jpg       	movNat   	3	waves     	38	waves04     	383	not_alive	0	moves	1	natural 	1	n	1	0    	 	0.0	0	145.419774800073	145.519762699958	0.0999878998845815
118722	100	264	stimuli\plant2\fern\plant_fern02.jpg             	1	4	1	plant_fern02.jpg     	plant2   	7	fern      	14	fern02      	141	alive    	1	still	0	natural 	1	n	0	0    	 	0.0	0	145.56977079995002	145.66976029984698	0.0999894998967647
118872	100	265	stimuli\animals2\bee\animal_bee10.jpg            	1	4	1	animal_bee10.jpg     	animals2 	1	bee       	0	bee10       	9	alive    	1	moves	1	natural 	1	n	0	1    	f	0.29211799986660497	1	145.719771400094	145.819759000093	0.0999875999987125
119022	100	266	stimuli\movArt\helicopter\ma_helicopter01.jpg    	1	4	1	ma_helicopter01.jpg  	movArt   	2	helicopter	19	helicopter01	190	not_alive	0	moves	1	artefact	0	n	0	0    	 	0.0	0	145.869768399745	145.969756199978	0.09998780023306598
119172	100	267	stimuli\plant2\palmtree\plant_palmtree02.jpg     	1	4	1	plant_palmtree02.jpg 	plant2   	7	palmtree  	27	palmtree02  	271	alive    	1	still	0	natural 	1	n	1	0    	 	0.0	0	146.019766499754	146.119756599888	0.0999901001341641
119322	100	268	stimuli\movArt\bus\ma_bus01.jpg                  	1	4	1	ma_bus01.jpg         	movArt   	2	bus       	3	bus01       	30	not_alive	0	moves	1	artefact	0	n	0	0    	 	0.0	0	146.169765300117	146.26975720003202	0.0999918999150395
119472	100	269	stimuli\nonmovNat\sand\nmn_sand05.jpg            	1	4	1	nmn_sand05.jpg       	nonmovNat	5	sand      	31	sand05      	314	not_alive	0	still	0	natural 	1	n	0	1    	f	0.391988300252706	1	146.31978049967398	146.41975559992702	0.0999751002527773
119622	100	270	stimuli\nonmovNat\cliff\nmn_cliff07.jpg          	1	4	1	nmn_cliff07.jpg      	nonmovNat	5	cliff     	7	cliff07     	76	not_alive	0	still	0	natural 	1	n	0	0    	 	0.0	0	146.469761499669	146.569753599819	0.09999210014939301
119772	100	271	stimuli\plant2\moss\plant_moss04.jpg             	1	4	1	plant_moss04.jpg     	plant2   	7	moss      	25	moss04      	253	alive    	1	still	0	natural 	1	n	0	0    	 	0.0	0	146.619762199931	146.719749299809	0.0999870998784899
119922	100	272	stimuli\movNat\waterfall\mn_waterfall06.jpg      	1	4	1	mn_waterfall06.jpg   	movNat   	3	waterfall 	37	waterfall06 	375	not_alive	0	moves	1	natural 	1	n	0	0    	 	0.0	0	146.769760099705	146.86975670000498	0.0999966003000736
120072	100	273	stimuli\animals2\whale\animal_whale09.jpg        	1	4	1	animal_whale09.jpg   	animals2 	1	whale     	39	whale09     	398	alive    	1	moves	1	natural 	1	n	0	0    	 	0.0	0	146.919781100005	147.019748500083	0.0999674000777304
120222	100	274	stimuli\animals\horse\animal_horse03.jpg         	1	4	1	animal_horse03.jpg   	animals  	0	horse     	20	horse03     	202	alive    	1	moves	1	natural 	1	n	0	0    	 	0.0	0	147.069755599834	147.169744799845	0.0999892000108957
120372	100	275	stimuli\nonmovNat\shell\nmn_shell09.jpg          	1	4	1	nmn_shell09.jpg      	nonmovNat	5	shell     	32	shell09     	328	not_alive	0	still	0	natural 	1	n	0	0    	 	0.0	0	147.21975299995398	147.319745399989	0.0999924000352621
120522	100	276	stimuli\animals\dog\animal_dog02.jpg             	1	4	1	animal_dog02.jpg     	animals  	0	dog       	11	dog02       	111	alive    	1	moves	1	natural 	1	n	0	0    	 	0.0	0	147.369753799867	147.469740199856	0.0999863999895751
120672	100	277	stimuli\movArt\train\ma_train02.jpg              	1	4	1	ma_train02.jpg       	movArt   	2	train     	34	train02     	341	not_alive	0	moves	1	artefact	0	n	0	0    	 	0.0	0	147.51975130010402	147.619741799776	0.0999904996715486
120822	100	278	stimuli\animals2\pigeon\animal_pigeon02.jpg      	1	4	1	animal_pigeon02.jpg  	animals2 	1	pigeon    	28	pigeon02    	281	alive    	1	moves	1	natural 	1	n	0	0    	 	0.0	0	147.669749400113	147.769737899769	0.0999884996563196
120972	100	279	stimuli\movNat\waterfall\mn_waterfall09.jpg      	1	4	1	mn_waterfall09.jpg   	movNat   	3	waterfall 	37	waterfall09 	378	not_alive	0	moves	1	natural 	1	n	1	0    	 	0.0	0	147.81974879978202	147.919742499944	0.0999937001615762
121122	100	280	stimuli\nonmovNat\shell\nmn_shell06.jpg          	1	4	1	nmn_shell06.jpg      	nonmovNat	5	shell     	32	shell06     	325	not_alive	0	still	0	natural 	1	n	0	0    	 	0.0	0	147.969746099785	148.069733900018	0.09998780023306598
121272	100	281	stimuli\nonmovNat\crystal\nmn_crystal04.jpg      	1	4	1	nmn_crystal04.jpg    	nonmovNat	5	crystal   	10	crystal04   	103	not_alive	0	still	0	natural 	1	n	0	1    	f	0.39197870017960706	1	148.11974409967698	148.219733399805	0.0999893001280725
121422	100	282	stimuli\movNat\fire\mn_fire05.jpg                	1	4	1	mn_fire05.jpg        	movNat   	3	fire      	15	fire05      	154	not_alive	0	moves	1	natural 	1	n	0	0    	 	0.0	0	148.269741700031	148.369731300045	0.0999896000139415
121572	100	283	stimuli\movArt\boat\ma_boat01.jpg                	1	4	1	ma_boat01.jpg        	movArt   	2	boat      	2	boat01      	20	not_alive	0	moves	1	artefact	0	n	0	0    	 	0.0	0	148.419740899932	148.51973469974502	0.0999937998130917
121722	100	284	stimuli\movNat\fire\mn_fire02.jpg                	1	4	1	mn_fire02.jpg        	movNat   	3	fire      	15	fire02      	151	not_alive	0	moves	1	natural 	1	n	0	0    	 	0.0	0	148.569739199709	148.669739400037	0.10000020032748598
121872	100	285	stimuli\movNat\river\mn_river07.jpg              	1	4	1	mn_river07.jpg       	movNat   	3	river     	29	river07     	296	not_alive	0	moves	1	natural 	1	n	0	0    	 	0.0	0	148.719754499849	148.819729699753	0.0999751999042928
122022	100	286	stimuli\movArt\helicopter\ma_helicopter09.jpg    	1	4	1	ma_helicopter09.jpg  	movArt   	2	helicopter	19	helicopter09	198	not_alive	0	moves	1	artefact	0	n	0	0    	 	0.0	0	148.86973629985002	148.969728399999	0.09999210014939301
122172	100	287	stimuli\plant\vine\plant_vine10.jpg              	1	4	1	plant_vine10.jpg     	plant    	6	vine      	36	vine10      	369	alive    	1	still	0	natural 	1	n	0	0    	 	0.0	0	149.019734499976	149.119724899996	0.0999904000200331
122322	100	288	stimuli\plant2\fern\plant_fern04.jpg             	1	4	1	plant_fern04.jpg     	plant2   	7	fern      	14	fern04      	143	alive    	1	still	0	natural 	1	n	0	0    	 	0.0	0	149.169730899855	149.269722600002	0.0999917001463472
122472	100	289	stimuli\animals2\lemur\animal_lemur05.jpg        	1	4	1	animal_lemur05.jpg   	animals2 	1	lemur     	23	lemur05     	234	alive    	1	moves	1	natural 	1	n	0	0    	 	0.0	0	149.319734399673	149.419719099998	0.0999847003258764
122622	100	290	stimuli\plant\grass\plant_grass03.jpg            	1	4	1	plant_grass03.jpg    	plant    	6	grass     	17	grass03     	172	alive    	1	still	0	natural 	1	n	0	0    	 	0.0	0	149.469728999771	149.56972009968	0.0999910999089479
122772	100	291	stimuli\movArt\helicopter\ma_helicopter10.jpg    	1	4	1	ma_helicopter10.jpg  	movArt   	2	helicopter	19	helicopter10	199	not_alive	0	moves	1	artefact	0	n	0	0    	 	0.0	0	149.61972709978	149.719720900059	0.099993800278753
122922	100	292	stimuli\movArt\car\ma_car07.jpg                  	1	4	1	ma_car07.jpg         	movArt   	2	car       	5	car07       	56	not_alive	0	moves	1	artefact	0	n	0	0    	 	0.0	0	149.769727699924	149.869716200046	0.0999885001219809
123072	100	293	stimuli\nonmovArt\headphones\nma_headphones08.jpg	1	4	1	nma_headphones08.jpg 	nonmovArt	4	headphones	18	headphones08	187	not_alive	0	still	0	artefact	0	n	0	0    	 	0.0	0	149.91972519969602	150.01971390005198	0.0999887003563344
123222	100	294	stimuli\movArt\bus\ma_bus02.jpg                  	1	4	1	ma_bus02.jpg         	movArt   	2	bus       	3	bus02       	31	not_alive	0	moves	1	artefact	0	n	0	0    	 	0.0	0	150.06972280005	150.169715299737	0.0999924996867776
123372	100	295	stimuli\nonmovArt\lock\nma_lock06.jpg            	1	4	1	nma_lock06.jpg       	nonmovArt	4	lock      	24	lock06      	245	not_alive	0	still	0	artefact	0	n	0	0    	 	0.0	0	150.219720699824	150.31971309986	0.0999924000352621
123522	100	296	stimuli\movArt\boat\ma_boat08.jpg                	1	4	1	ma_boat08.jpg        	movArt   	2	boat      	2	boat08      	27	not_alive	0	moves	1	artefact	0	n	0	0    	 	0.0	0	150.369719000068	150.469738599844	0.100019599776715
123672	100	297	stimuli\movNat\fire\mn_fire10.jpg                	1	4	1	mn_fire10.jpg        	movNat   	3	fire      	15	fire10      	159	not_alive	0	moves	1	natural 	1	n	0	0    	 	0.0	0	150.519720499869	150.619711000007	0.0999905001372098
123822	100	298	stimuli\movArt\bus\ma_bus06.jpg                  	1	4	1	ma_bus06.jpg         	movArt   	2	bus       	3	bus06       	35	not_alive	0	moves	1	artefact	0	n	0	0    	 	0.0	0	150.669715600088	150.769708400127	0.0999928000383079
123972	100	299	stimuli\animals\dog\animal_dog04.jpg             	1	4	1	animal_dog04.jpg     	animals  	0	dog       	11	dog04       	113	alive    	1	moves	1	natural 	1	n	0	0    	 	0.0	0	150.819713199977	150.91970699978998	0.0999937998130917
124122	100	300	stimuli\animals2\tiger\animal_tiger01.jpg        	1	4	1	animal_tiger01.jpg   	animals2 	1	tiger     	33	tiger01     	330	alive    	1	moves	1	natural 	1	n	0	0    	 	0.0	0	150.96971319988398	151.069705300033	0.09999210014939301
124272	100	301	stimuli\animals2\whale\animal_whale02.jpg        	1	4	1	animal_whale02.jpg   	animals2 	1	whale     	39	whale02     	391	alive    	1	moves	1	natural 	1	n	0	0    	 	0.0	0	151.119710700121	151.21970129991	0.0999905997887253
124422	100	302	stimuli\nonmovArt\lock\nma_lock05.jpg            	1	4	1	nma_lock05.jpg       	nonmovArt	4	lock      	24	lock05      	244	not_alive	0	still	0	artefact	0	n	0	0    	 	0.0	0	151.269710899796	151.369700899813	0.0999900000169873
124572	100	303	stimuli\animals\cat\animal_cat02.jpg             	1	4	1	animal_cat02.jpg     	animals  	0	cat       	6	cat02       	61	alive    	1	moves	1	natural 	1	n	0	0    	 	0.0	0	151.41971029993098	151.519696999807	0.0999866998754441
124722	100	304	stimuli\nonmovNat\rock\nmn_rock08.jpg            	1	4	1	nmn_rock08.jpg       	nonmovNat	5	rock      	30	rock08      	307	not_alive	0	still	0	natural 	1	n	0	0    	 	0.0	0	151.569705599919	151.669696100056	0.0999905001372098
124872	100	305	stimuli\movArt\train\ma_train06.jpg              	1	4	1	ma_train06.jpg       	movArt   	2	train     	34	train06     	345	not_alive	0	moves	1	artefact	0	n	0	0    	 	0.0	0	151.719710099977	151.819695000071	0.0999849000945687
125022	100	306	stimuli\movNat\waterfall\mn_waterfall09.jpg      	1	4	1	mn_waterfall09.jpg   	movNat   	3	waterfall 	37	waterfall09 	378	not_alive	0	moves	1	natural 	1	n	0	0    	 	0.0	0	151.86970350006598	151.969693900086	0.0999904000200331
125172	100	307	stimuli\animals2\bee\animal_bee04.jpg            	1	4	1	animal_bee04.jpg     	animals2 	1	bee       	0	bee04       	3	alive    	1	moves	1	natural 	1	n	0	0    	 	0.0	0	152.019701899961	152.11971839983	0.10001649986952499
125322	100	308	stimuli\plant2\lemontree\plant_lemontree03.jpg   	1	4	1	plant_lemontree03.jpg	plant2   	7	lemontree 	22	lemontree03 	222	alive    	1	still	0	natural 	1	n	0	0    	 	0.0	0	152.169698999729	152.269707900006	0.10000890027731699
125472	100	309	stimuli\plant\tree\plant_tree10.jpg              	1	4	1	plant_tree10.jpg     	plant    	6	tree      	35	tree10      	359	alive    	1	still	0	natural 	1	n	0	0    	 	0.0	0	152.319699899759	152.419689700007	0.099989800248295
125622	100	310	stimuli\animals\cat\animal_cat04.jpg             	1	4	1	animal_cat04.jpg     	animals  	0	cat       	6	cat04       	63	alive    	1	moves	1	natural 	1	n	0	0    	 	0.0	0	152.46969799976802	152.569687800016	0.099989800248295
125772	100	311	stimuli\animals2\bee\animal_bee04.jpg            	1	4	1	animal_bee04.jpg     	animals2 	1	bee       	0	bee04       	3	alive    	1	moves	1	natural 	1	n	0	0    	 	0.0	0	152.619694899768	152.719686799683	0.0999918999150395
125922	100	312	stimuli\animals\eagle\animal_eagle02.jpg         	1	4	1	animal_eagle02.jpg   	animals  	0	eagle     	13	eagle02     	131	alive    	1	moves	1	natural 	1	n	0	0    	 	0.0	0	152.76969400001698	152.86968059977502	0.0999865997582674
126073	100	313	stimuli\animals2\lemur\animal_lemur07.jpg        	1	4	1	animal_lemur07.jpg   	animals2 	1	lemur     	23	lemur07     	236	alive    	1	moves	1	natural 	1	n	0	0    	 	0.0	0	152.920555599965	153.02046889998002	0.0999133000150322
126223	100	314	stimuli\nonmovArt\bench\nma_bench08.jpg          	1	4	1	nma_bench08.jpg      	nonmovArt	4	bench     	1	bench08     	17	not_alive	0	still	0	artefact	0	n	0	0    	 	0.0	0	153.070559099782	153.170471099671	0.0999119998887181
126373	100	315	stimuli\plant2\palmtree\plant_palmtree09.jpg     	1	4	1	plant_palmtree09.jpg 	plant2   	7	palmtree  	27	palmtree09  	278	alive    	1	still	0	natural 	1	n	0	0    	 	0.0	0	153.22054969985	153.320477100089	0.0999274002388119
126523	100	316	stimuli\nonmovArt\headphones\nma_headphones09.jpg	1	4	1	nma_headphones09.jpg 	nonmovArt	4	headphones	18	headphones09	188	not_alive	0	still	0	artefact	0	n	0	0    	 	0.0	0	153.370605600066	153.47046709992	0.0998614998534321
126673	100	317	stimuli\nonmovArt\headphones\nma_headphones02.jpg	1	4	1	nma_headphones02.jpg 	nonmovArt	4	headphones	18	headphones02	181	not_alive	0	still	0	artefact	0	n	0	0    	 	0.0	0	153.520561799873	153.620471700095	0.0999099002219736
126823	100	318	stimuli\nonmovNat\crystal\nmn_crystal06.jpg      	1	4	1	nmn_crystal06.jpg    	nonmovNat	5	crystal   	10	crystal06   	105	not_alive	0	still	0	natural 	1	n	0	0    	 	0.0	0	153.670527799986	153.770551799797	0.10002399981021902
126973	100	319	stimuli\nonmovNat\crystal\nmn_crystal02.jpg      	1	4	1	nmn_crystal02.jpg    	nonmovNat	5	crystal   	10	crystal02   	101	not_alive	0	still	0	natural 	1	n	0	0    	 	0.0	0	153.820531199686	153.920461199712	0.09993000002577901
132240	100	320	stimuli\animals\dog\animal_dog04.jpg             	1	5	1	animal_dog04.jpg     	animals  	0	dog       	11	dog04       	113	alive    	1	moves	1	natural 	1	n	0	0    	 	0.0	0	159.087188699748	159.187192900106	0.100004200357944
132390	100	321	stimuli\nonmovNat\rock\nmn_rock02.jpg            	1	5	1	nmn_rock02.jpg       	nonmovNat	5	rock      	30	rock02      	301	not_alive	0	still	0	natural 	1	n	0	0    	 	0.0	0	159.23717299988502	159.337073799688	0.0999007998034358
132540	100	322	stimuli\plant2\lemontree\plant_lemontree10.jpg   	1	5	1	plant_lemontree10.jpg	plant2   	7	lemontree 	22	lemontree10 	229	alive    	1	still	0	natural 	1	n	0	0    	 	0.0	0	159.387153000105	159.487072499935	0.0999194998294115
132690	100	323	stimuli\plant2\palmtree\plant_palmtree05.jpg     	1	5	1	plant_palmtree05.jpg 	plant2   	7	palmtree  	27	palmtree05  	274	alive    	1	still	0	natural 	1	n	0	0    	 	0.0	0	159.537153400015	159.63706430001199	0.0999108999967575
132840	100	324	stimuli\movNat\waves\mn_waves10.jpg              	1	5	1	mn_waves10.jpg       	movNat   	3	waves     	38	waves10     	389	not_alive	0	moves	1	natural 	1	n	0	0    	 	0.0	0	159.687154499814	159.787037999835	0.09988350002095099
132990	100	325	stimuli\animals2\lemur\animal_lemur08.jpg        	1	5	1	animal_lemur08.jpg   	animals2 	1	lemur     	23	lemur08     	237	alive    	1	moves	1	natural 	1	n	0	0    	 	0.0	0	159.837158199865	159.937067300081	0.099909100215882
133140	100	326	stimuli\plant2\fern\plant_fern07.jpg             	1	5	1	plant_fern07.jpg     	plant2   	7	fern      	14	fern07      	146	alive    	1	still	0	natural 	1	n	0	0    	 	0.0	0	159.987146500032	160.087068299763	0.0999217997305095
133290	100	327	stimuli\nonmovArt\mug\nma_mug06.jpg              	1	5	1	nma_mug06.jpg        	nonmovArt	4	mug       	26	mug06       	265	not_alive	0	still	0	artefact	0	n	0	0    	 	0.0	0	160.137150899973	160.237058899831	0.0999079998582601
133440	100	328	stimuli\plant2\moss\plant_moss07.jpg             	1	5	1	plant_moss07.jpg     	plant2   	7	moss      	25	moss07      	256	alive    	1	still	0	natural 	1	n	0	0    	 	0.0	0	160.287157199811	160.387071699835	0.0999145000241696
133590	100	329	stimuli\animals\horse\animal_horse05.jpg         	1	5	1	animal_horse05.jpg   	animals  	0	horse     	20	horse05     	204	alive    	1	moves	1	natural 	1	n	0	0    	 	0.0	0	160.437150499783	160.537063399795	0.0999129000119865
133740	100	330	stimuli\animals2\pigeon\animal_pigeon03.jpg      	1	5	1	animal_pigeon03.jpg  	animals2 	1	pigeon    	28	pigeon03    	282	alive    	1	moves	1	natural 	1	n	0	0    	 	0.0	0	160.587135099806	160.687057899777	0.0999227999709546
133890	100	331	stimuli\movNat\hotspring\mn_hotspring03.jpg      	1	5	1	mn_hotspring03.jpg   	movNat   	3	hotspring 	21	hotspring03 	212	not_alive	0	moves	1	natural 	1	n	0	0    	 	0.0	0	160.737138899975	160.837059400044	0.0999205000698566
134040	100	332	stimuli\animals\eagle\animal_eagle10.jpg         	1	5	1	animal_eagle10.jpg   	animals  	0	eagle     	13	eagle10     	139	alive    	1	moves	1	natural 	1	n	0	0    	 	0.0	0	160.887143499684	160.98713100003098	0.099987500347197
134190	100	333	stimuli\plant\cactus\plant_cactus02.jpg          	1	5	1	plant_cactus02.jpg   	plant    	6	cactus    	4	cactus02    	41	alive    	1	still	0	natural 	1	n	0	0    	 	0.0	0	161.037195499986	161.13711669994498	0.0999211999587714
134340	100	334	stimuli\nonmovNat\cliff\nmn_cliff08.jpg          	1	5	1	nmn_cliff08.jpg      	nonmovNat	5	cliff     	7	cliff08     	77	not_alive	0	still	0	natural 	1	n	0	0    	 	0.0	0	161.187127999961	161.287059499882	0.0999314999207854
134490	100	335	stimuli\movNat\river\mn_river03.jpg              	1	5	1	mn_river03.jpg       	movNat   	3	river     	29	river03     	292	not_alive	0	moves	1	natural 	1	n	0	0    	 	0.0	0	161.337136399932	161.437056600116	0.0999202001839876
134640	100	336	stimuli\nonmovNat\cliff\nmn_cliff10.jpg          	1	5	1	nmn_cliff10.jpg      	nonmovNat	5	cliff     	7	cliff10     	79	not_alive	0	still	0	natural 	1	n	0	0    	 	0.0	0	161.487133999821	161.587053900119	0.0999199002981186
134789	100	337	stimuli\animals\cat\animal_cat03.jpg             	1	5	1	animal_cat03.jpg     	animals  	0	cat       	6	cat03       	62	alive    	1	moves	1	natural 	1	n	0	0    	 	0.0	0	161.63697839994	161.73689269973	0.0999142997898161
134939	100	338	stimuli\nonmovArt\clothespeg\nma_clothespeg06.jpg	1	5	1	nma_clothespeg06.jpg 	nonmovArt	4	clothespeg	8	clothespeg06	85	not_alive	0	still	0	artefact	0	n	0	0    	 	0.0	0	161.786976600066	161.886898600031	0.099921999964863
135090	100	339	stimuli\nonmovNat\shell\nmn_shell10.jpg          	1	5	1	nmn_shell10.jpg      	nonmovNat	5	shell     	32	shell10     	329	not_alive	0	still	0	natural 	1	n	0	0    	 	0.0	0	161.937148999888	162.037079999689	0.0999309998005628
135240	100	340	stimuli\animals\dolphin\animal_dolphin03.jpg     	1	5	1	animal_dolphin03.jpg 	animals  	0	dolphin   	12	dolphin03   	122	alive    	1	moves	1	natural 	1	n	0	0    	 	0.0	0	162.08714589988801	162.18705770000798	0.0999118001200258
135390	100	341	stimuli\nonmovArt\lock\nma_lock03.jpg            	1	5	1	nma_lock03.jpg       	nonmovArt	4	lock      	24	lock03      	242	not_alive	0	still	0	artefact	0	n	0	0    	 	0.0	0	162.23713780008302	162.337042899802	0.0999050997197628
135540	100	342	stimuli\nonmovNat\sand\nmn_sand01.jpg            	1	5	1	nmn_sand01.jpg       	nonmovNat	5	sand      	31	sand01      	310	not_alive	0	still	0	natural 	1	n	0	0    	 	0.0	0	162.387177699711	162.487047299743	0.0998696000315249
135690	100	343	stimuli\animals2\tiger\animal_tiger01.jpg        	1	5	1	animal_tiger01.jpg   	animals2 	1	tiger     	33	tiger01     	330	alive    	1	moves	1	natural 	1	n	0	0    	 	0.0	0	162.537112299819	162.637033800129	0.0999215003103017
135840	100	344	stimuli\plant2\clover\plant_clover08.jpg         	1	5	1	plant_clover08.jpg   	plant2   	7	clover    	9	clover08    	97	alive    	1	still	0	natural 	1	n	0	0    	 	0.0	0	162.687143399846	162.787089500111	0.0999461002647876
135990	100	345	stimuli\animals2\pigeon\animal_pigeon08.jpg      	1	5	1	animal_pigeon08.jpg  	animals2 	1	pigeon    	28	pigeon08    	287	alive    	1	moves	1	natural 	1	n	0	0    	 	0.0	0	162.83712159982	162.937042300124	0.0999207003042102
136140	100	346	stimuli\animals2\tiger\animal_tiger03.jpg        	1	5	1	animal_tiger03.jpg   	animals2 	1	tiger     	33	tiger03     	332	alive    	1	moves	1	natural 	1	n	0	0    	 	0.0	0	162.987104000058	163.08701939974	0.0999153996817767
136290	100	347	stimuli\movArt\train\ma_train01.jpg              	1	5	1	ma_train01.jpg       	movArt   	2	train     	34	train01     	340	not_alive	0	moves	1	artefact	0	n	0	0    	 	0.0	0	163.13711520005	163.237029199954	0.0999139999039471
136440	100	348	stimuli\plant\flower\plant_flower08.jpg          	1	5	1	plant_flower08.jpg   	plant    	6	flower    	16	flower08    	167	alive    	1	still	0	natural 	1	n	0	0    	 	0.0	0	163.287108100019	163.387024600059	0.0999165000393986
136590	100	349	stimuli\nonmovNat\sand\nmn_sand03.jpg            	1	5	1	nmn_sand03.jpg       	nonmovNat	5	sand      	31	sand03      	312	not_alive	0	still	0	natural 	1	n	0	0    	 	0.0	0	163.437122500036	163.537028999999	0.0999064999632537
136740	100	350	stimuli\nonmovArt\bench\nma_bench01.jpg          	1	5	1	nma_bench01.jpg      	nonmovArt	4	bench     	1	bench01     	10	not_alive	0	still	0	artefact	0	n	0	0    	 	0.0	0	163.587101100013	163.687040300109	0.0999392000958323
136890	100	351	stimuli\movArt\car\ma_car06.jpg                  	1	5	1	ma_car06.jpg         	movArt   	2	car       	5	car06       	55	not_alive	0	moves	1	artefact	0	n	0	0    	 	0.0	0	163.73711729981	163.837034400087	0.09991710027679801
137040	100	352	stimuli\movArt\boat\ma_boat03.jpg                	1	5	1	ma_boat03.jpg        	movArt   	2	boat      	2	boat03      	22	not_alive	0	moves	1	artefact	0	n	0	0    	 	0.0	0	163.887094699778	163.987027499825	0.0999328000470996
137190	100	353	stimuli\movNat\river\mn_river07.jpg              	1	5	1	mn_river07.jpg       	movNat   	3	river     	29	river07     	296	not_alive	0	moves	1	natural 	1	n	0	0    	 	0.0	0	164.03710329998302	164.13702429970698	0.0999209997244179
137340	100	354	stimuli\nonmovArt\clothespeg\nma_clothespeg10.jpg	1	5	1	nma_clothespeg10.jpg 	nonmovArt	4	clothespeg	8	clothespeg10	89	not_alive	0	still	0	artefact	0	n	0	0    	 	0.0	0	164.18710729991997	164.287027599756	0.0999202998355031
137490	100	355	stimuli\plant\tree\plant_tree09.jpg              	1	5	1	plant_tree09.jpg     	plant    	6	tree      	35	tree09      	358	alive    	1	still	0	natural 	1	n	0	0    	 	0.0	0	164.33711479976802	164.437014999799	0.0999002000316977
137640	100	356	stimuli\nonmovArt\mug\nma_mug03.jpg              	1	5	1	nma_mug03.jpg        	nonmovArt	4	mug       	26	mug03       	262	not_alive	0	still	0	artefact	0	n	0	0    	 	0.0	0	164.487158100121	164.58702440001102	0.0998662998899817
137790	100	357	stimuli\plant\vine\plant_vine04.jpg              	1	5	1	plant_vine04.jpg     	plant    	6	vine      	36	vine04      	363	alive    	1	still	0	natural 	1	n	0	0    	 	0.0	0	164.63710010005198	164.737016699743	0.0999165996909141
137939	100	358	stimuli\plant\cactus\plant_cactus09.jpg          	1	5	1	plant_cactus09.jpg   	plant    	6	cactus    	4	cactus09    	48	alive    	1	still	0	natural 	1	n	0	0    	 	0.0	0	164.78706349991302	164.887022299692	0.0999587997794151
138090	100	359	stimuli\nonmovNat\rock\nmn_rock10.jpg            	1	5	1	nmn_rock10.jpg       	nonmovNat	5	rock      	30	rock10      	309	not_alive	0	still	0	natural 	1	n	0	0    	 	0.0	0	164.937089699786	165.037012499757	0.0999227999709546
138239	100	360	stimuli\animals\cat\animal_cat04.jpg             	1	5	1	animal_cat04.jpg     	animals  	0	cat       	6	cat04       	63	alive    	1	moves	1	natural 	1	n	0	0    	 	0.0	0	165.087078799959	165.187007099856	0.099928299896419
138390	100	361	stimuli\animals\dog\animal_dog01.jpg             	1	5	1	animal_dog01.jpg     	animals  	0	dog       	11	dog01       	110	alive    	1	moves	1	natural 	1	n	0	0    	 	0.0	0	165.237106699962	165.337008100003	0.0999014000408351
138539	100	362	stimuli\movNat\waves\mn_waves04.jpg              	1	5	1	mn_waves04.jpg       	movNat   	3	waves     	38	waves04     	383	not_alive	0	moves	1	natural 	1	n	0	0    	 	0.0	0	165.387076199986	165.48701549973302	0.0999392997473478
138690	100	363	stimuli\plant\vine\plant_vine04.jpg              	1	5	1	plant_vine04.jpg     	plant    	6	vine      	36	vine04      	363	alive    	1	still	0	natural 	1	n	0	0    	 	0.0	0	165.537110100035	165.63700249977398	0.099892399739474
138840	100	364	stimuli\movArt\helicopter\ma_helicopter07.jpg    	1	5	1	ma_helicopter07.jpg  	movArt   	2	helicopter	19	helicopter07	196	not_alive	0	moves	1	artefact	0	n	0	0    	 	0.0	0	165.68709239969	165.786975699943	0.0998833002522587
138990	100	365	stimuli\nonmovArt\bench\nma_bench02.jpg          	1	5	1	nma_bench02.jpg      	nonmovArt	4	bench     	1	bench02     	11	not_alive	0	still	0	artefact	0	n	0	0    	 	0.0	0	165.837097899988	165.93699269974599	0.0998947997577488
139140	100	366	stimuli\animals\cat\animal_cat10.jpg             	1	5	1	animal_cat10.jpg     	animals  	0	cat       	6	cat10       	69	alive    	1	moves	1	natural 	1	n	0	0    	 	0.0	0	165.987096100114	166.087001699954	0.0999055998399853
139290	100	367	stimuli\movNat\hotspring\mn_hotspring05.jpg      	1	5	1	mn_hotspring05.jpg   	movNat   	3	hotspring 	21	hotspring05 	214	not_alive	0	moves	1	natural 	1	n	0	0    	 	0.0	0	166.137085699942	166.237007499672	0.0999217997305095
139440	100	368	stimuli\plant2\fern\plant_fern05.jpg             	1	5	1	plant_fern05.jpg     	plant2   	7	fern      	14	fern05      	144	alive    	1	still	0	natural 	1	n	0	0    	 	0.0	0	166.287136800122	166.387103099842	0.0999662997201085
139589	100	369	stimuli\plant2\lemontree\plant_lemontree05.jpg   	1	5	1	plant_lemontree05.jpg	plant2   	7	lemontree 	22	lemontree05 	224	alive    	1	still	0	natural 	1	n	0	0    	 	0.0	0	166.437078099698	166.536989799701	0.0999117000028491
139739	100	370	stimuli\movArt\boat\ma_boat01.jpg                	1	5	1	ma_boat01.jpg        	movArt   	2	boat      	2	boat01      	20	not_alive	0	moves	1	artefact	0	n	0	0    	 	0.0	0	166.587077799719	166.686994299758	0.0999165000393986
139890	100	371	stimuli\plant\grass\plant_grass06.jpg            	1	5	1	plant_grass06.jpg    	plant    	6	grass     	17	grass06     	175	alive    	1	still	0	natural 	1	n	0	0    	 	0.0	0	166.737078899983	166.836983900052	0.0999050000682473
140039	100	372	stimuli\animals2\whale\animal_whale04.jpg        	1	5	1	animal_whale04.jpg   	animals2 	1	whale     	39	whale04     	393	alive    	1	moves	1	natural 	1	n	0	0    	 	0.0	0	166.887075100094	166.986991699785	0.0999165996909141
140190	100	373	stimuli\animals\dolphin\animal_dolphin06.jpg     	1	5	1	animal_dolphin06.jpg 	animals  	0	dolphin   	12	dolphin06   	125	alive    	1	moves	1	natural 	1	n	0	0    	 	0.0	0	167.03709369991	167.136982199736	0.0998884998261928
140340	100	374	stimuli\animals2\bee\animal_bee08.jpg            	1	5	1	animal_bee08.jpg     	animals2 	1	bee       	0	bee08       	7	alive    	1	moves	1	natural 	1	n	0	0    	 	0.0	0	167.187087500002	167.286998199765	0.0999106997624039
140489	100	375	stimuli\movNat\waves\mn_waves01.jpg              	1	5	1	mn_waves01.jpg       	movNat   	3	waves     	38	waves01     	380	not_alive	0	moves	1	natural 	1	n	0	0    	 	0.0	0	167.337065999862	167.43698729993798	0.0999213000759482
140639	100	376	stimuli\animals2\lemur\animal_lemur06.jpg        	1	5	1	animal_lemur06.jpg   	animals2 	1	lemur     	23	lemur06     	235	alive    	1	moves	1	natural 	1	n	0	0    	 	0.0	0	167.487064700108	167.586979100015	0.0999143999069929
140789	100	377	stimuli\movNat\river\mn_river10.jpg              	1	5	1	mn_river10.jpg       	movNat   	3	river     	29	river10     	299	not_alive	0	moves	1	natural 	1	n	1	0    	 	0.0	0	167.637064800132	167.736973099876	0.0999082997441291
140939	100	378	stimuli\nonmovNat\shell\nmn_shell08.jpg          	1	5	1	nmn_shell08.jpg      	nonmovNat	5	shell     	32	shell08     	327	not_alive	0	still	0	natural 	1	n	0	0    	 	0.0	0	167.78704610001301	167.886988800019	0.0999427000060677
141090	100	379	stimuli\plant2\palmtree\plant_palmtree10.jpg     	1	5	1	plant_palmtree10.jpg 	plant2   	7	palmtree  	27	palmtree10  	279	alive    	1	still	0	natural 	1	n	0	1    	f	0.29204859957099	1	167.937079099938	168.03700539981898	0.09992629988119
141239	100	380	stimuli\plant2\clover\plant_clover05.jpg         	1	5	1	plant_clover05.jpg   	plant2   	7	clover    	9	clover05    	94	alive    	1	still	0	natural 	1	n	0	0    	 	0.0	0	168.086919100024	168.186932899989	0.100013799965382
141389	100	381	stimuli\movArt\helicopter\ma_helicopter08.jpg    	1	5	1	ma_helicopter08.jpg  	movArt   	2	helicopter	19	helicopter08	197	not_alive	0	moves	1	artefact	0	n	0	0    	 	0.0	0	168.236980000045	168.336836699862	0.0998566998168826
141539	100	382	stimuli\movArt\car\ma_car05.jpg                  	1	5	1	ma_car05.jpg         	movArt   	2	car       	5	car05       	54	not_alive	0	moves	1	artefact	0	n	0	0    	 	0.0	0	168.386948599946	168.48688799981002	0.0999393998645246
141689	100	383	stimuli\movArt\train\ma_train03.jpg              	1	5	1	ma_train03.jpg       	movArt   	2	train     	34	train03     	342	not_alive	0	moves	1	artefact	0	n	0	0    	 	0.0	0	168.536903100088	168.636978699826	0.10007559973746499
141839	100	384	stimuli\nonmovNat\rock\nmn_rock10.jpg            	1	5	1	nmn_rock10.jpg       	nonmovNat	5	rock      	30	rock10      	309	not_alive	0	still	0	natural 	1	n	0	0    	 	0.0	0	168.68704249989202	168.786983400118	0.0999409002251923
141990	100	385	stimuli\movNat\fire\mn_fire06.jpg                	1	5	1	mn_fire06.jpg        	movNat   	3	fire      	15	fire06      	155	not_alive	0	moves	1	natural 	1	n	0	0    	 	0.0	0	168.837067800108	168.936972899828	0.0999050997197628
142140	100	386	stimuli\animals\eagle\animal_eagle06.jpg         	1	5	1	animal_eagle06.jpg   	animals  	0	eagle     	13	eagle06     	135	alive    	1	moves	1	natural 	1	n	0	0    	 	0.0	0	168.987074299715	169.08698729984502	0.0999130001291632
142290	100	387	stimuli\nonmovNat\shell\nmn_shell02.jpg          	1	5	1	nmn_shell02.jpg      	nonmovNat	5	shell     	32	shell02     	321	not_alive	0	still	0	natural 	1	n	1	0    	 	0.0	0	169.13706839969402	169.2369804997	0.0999121000058949
142440	100	388	stimuli\movNat\fire\mn_fire09.jpg                	1	5	1	mn_fire09.jpg        	movNat   	3	fire      	15	fire09      	158	not_alive	0	moves	1	natural 	1	n	0	0    	 	0.0	0	169.28708150005	169.386986800004	0.0999052999541163
142590	100	389	stimuli\animals2\whale\animal_whale10.jpg        	1	5	1	animal_whale10.jpg   	animals2 	1	whale     	39	whale10     	399	alive    	1	moves	1	natural 	1	n	0	1    	f	0.39196520019322606	1	169.43706579972098	169.537000999786	0.0999352000653743
142740	100	390	stimuli\plant2\moss\plant_moss05.jpg             	1	5	1	plant_moss05.jpg     	plant2   	7	moss      	25	moss05      	254	alive    	1	still	0	natural 	1	n	0	0    	 	0.0	0	169.587070799898	169.686959799845	0.0998889999464154
142890	100	391	stimuli\movNat\waterfall\mn_waterfall10.jpg      	1	5	1	mn_waterfall10.jpg   	movNat   	3	waterfall 	37	waterfall10 	379	not_alive	0	moves	1	natural 	1	n	0	0    	 	0.0	0	169.737062099855	169.837006200105	0.0999441002495586
143040	100	392	stimuli\plant\cactus\plant_cactus07.jpg          	1	5	1	plant_cactus07.jpg   	plant    	6	cactus    	4	cactus07    	46	alive    	1	still	0	natural 	1	n	0	0    	 	0.0	0	169.887133599725	169.987084999681	0.0999513999558985
143189	100	393	stimuli\movArt\car\ma_car03.jpg                  	1	5	1	ma_car03.jpg         	movArt   	2	car       	5	car03       	52	not_alive	0	moves	1	artefact	0	n	0	0    	 	0.0	0	170.037016000133	170.136978199705	0.0999621995724737
143340	100	394	stimuli\nonmovNat\shell\nmn_shell02.jpg          	1	5	1	nmn_shell02.jpg      	nonmovNat	5	shell     	32	shell02     	321	not_alive	0	still	0	natural 	1	n	0	0    	 	0.0	0	170.187065999955	170.286973199807	0.0999071998521685
143490	100	395	stimuli\nonmovNat\crystal\nmn_crystal02.jpg      	1	5	1	nmn_crystal02.jpg    	nonmovNat	5	crystal   	10	crystal02   	101	not_alive	0	still	0	natural 	1	n	0	0    	 	0.0	0	170.337058600038	170.436984299682	0.0999256996437907
143640	100	396	stimuli\nonmovArt\headphones\nma_headphones05.jpg	1	5	1	nma_headphones05.jpg 	nonmovArt	4	headphones	18	headphones05	184	not_alive	0	still	0	artefact	0	n	0	0    	 	0.0	0	170.487056999933	170.586947899777	0.0998908998444676
143789	100	397	stimuli\nonmovArt\clothespeg\nma_clothespeg02.jpg	1	5	1	nma_clothespeg02.jpg 	nonmovArt	4	clothespeg	8	clothespeg02	81	not_alive	0	still	0	artefact	0	n	0	0    	 	0.0	0	170.637033599894	170.736951199826	0.0999175999313592
143939	100	398	stimuli\plant\vine\plant_vine09.jpg              	1	5	1	plant_vine09.jpg     	plant    	6	vine      	36	vine09      	368	alive    	1	still	0	natural 	1	n	0	0    	 	0.0	0	170.787045599893	170.886954300106	0.0999087002128362
144089	100	399	stimuli\movArt\bus\ma_bus01.jpg                  	1	5	1	ma_bus01.jpg         	movArt   	2	bus       	3	bus01       	30	not_alive	0	moves	1	artefact	0	n	0	0    	 	0.0	0	170.937043999787	171.036966899876	0.0999229000881314
148173	100	400	stimuli\nonmovArt\lock\nma_lock04.jpg            	1	6	1	nma_lock04.jpg       	nonmovArt	4	lock      	24	lock04      	243	not_alive	0	still	0	artefact	0	n	0	0    	 	0.0	0	175.020338200033	175.120243699756	0.0999054997228086
148323	100	401	stimuli\plant\grass\plant_grass01.jpg            	1	6	1	plant_grass01.jpg    	plant    	6	grass     	17	grass01     	170	alive    	1	still	0	natural 	1	n	0	0    	 	0.0	0	175.17032429994998	175.270239700098	0.09991540014743801
148473	100	402	stimuli\nonmovArt\mug\nma_mug02.jpg              	1	6	1	nma_mug02.jpg        	nonmovArt	4	mug       	26	mug02       	261	not_alive	0	still	0	artefact	0	n	0	0    	 	0.0	0	175.320307699963	175.420241499785	0.0999337998218834
148623	100	403	stimuli\nonmovNat\cliff\nmn_cliff03.jpg          	1	6	1	nmn_cliff03.jpg      	nonmovNat	5	cliff     	7	cliff03     	72	not_alive	0	still	0	natural 	1	n	0	0    	 	0.0	0	175.470329599921	175.570223699789	0.099894099868834
148773	100	404	stimuli\animals2\tiger\animal_tiger06.jpg        	1	6	1	animal_tiger06.jpg   	animals2 	1	tiger     	33	tiger06     	335	alive    	1	moves	1	natural 	1	n	0	0    	 	0.0	0	175.620319999754	175.720232699998	0.0999127002432942
148923	100	405	stimuli\movArt\train\ma_train03.jpg              	1	6	1	ma_train03.jpg       	movArt   	2	train     	34	train03     	342	not_alive	0	moves	1	artefact	0	n	0	0    	 	0.0	0	175.770320499782	175.870227399748	0.0999068999662995
149073	100	406	stimuli\animals\horse\animal_horse06.jpg         	1	6	1	animal_horse06.jpg   	animals  	0	horse     	20	horse06     	205	alive    	1	moves	1	natural 	1	n	0	0    	 	0.0	0	175.92031410010503	176.020215299912	0.0999011998064816
149223	100	407	stimuli\movNat\waterfall\mn_waterfall05.jpg      	1	6	1	mn_waterfall05.jpg   	movNat   	3	waterfall 	37	waterfall05 	374	not_alive	0	moves	1	natural 	1	n	0	0    	 	0.0	0	176.07031039986802	176.170227199793	0.0999167999252677
149373	100	408	stimuli\nonmovArt\clothespeg\nma_clothespeg04.jpg	1	6	1	nma_clothespeg04.jpg 	nonmovArt	4	clothespeg	8	clothespeg04	83	not_alive	0	still	0	artefact	0	n	0	0    	 	0.0	0	176.220369399991	176.320226799697	0.0998573997057974
149523	100	409	stimuli\movArt\bus\ma_bus05.jpg                  	1	6	1	ma_bus05.jpg         	movArt   	2	bus       	3	bus05       	34	not_alive	0	moves	1	artefact	0	n	0	0    	 	0.0	0	176.37041560001703	176.470222599804	0.0998069997876882
149673	100	410	stimuli\movNat\river\mn_river10.jpg              	1	6	1	mn_river10.jpg       	movNat   	3	river     	29	river10     	299	not_alive	0	moves	1	natural 	1	n	0	0    	 	0.0	0	176.520312800072	176.620208200067	0.0998953999951481
149823	100	411	stimuli\animals\eagle\animal_eagle04.jpg         	1	6	1	animal_eagle04.jpg   	animals  	0	eagle     	13	eagle04     	133	alive    	1	moves	1	natural 	1	n	0	0    	 	0.0	0	176.670291599818	176.77021429967098	0.0999226998537778
149973	100	412	stimuli\nonmovNat\sand\nmn_sand07.jpg            	1	6	1	nmn_sand07.jpg       	nonmovNat	5	sand      	31	sand07      	316	not_alive	0	still	0	natural 	1	n	0	0    	 	0.0	0	176.82030599983398	176.920207600109	0.0999016002751886
150123	100	413	stimuli\nonmovArt\clothespeg\nma_clothespeg05.jpg	1	6	1	nma_clothespeg05.jpg 	nonmovArt	4	clothespeg	8	clothespeg05	84	not_alive	0	still	0	artefact	0	n	0	0    	 	0.0	0	176.970308899879	177.070226099808	0.0999171999283135
150273	100	414	stimuli\plant\tree\plant_tree02.jpg              	1	6	1	plant_tree02.jpg     	plant    	6	tree      	35	tree02      	351	alive    	1	still	0	natural 	1	n	0	0    	 	0.0	0	177.12029579980302	177.2202066998	0.0999108999967575
150423	100	415	stimuli\plant\flower\plant_flower03.jpg          	1	6	1	plant_flower03.jpg   	plant    	6	flower    	16	flower03    	162	alive    	1	still	0	natural 	1	n	0	0    	 	0.0	0	177.270296599716	177.37020380003398	0.0999072003178298
150573	100	416	stimuli\plant\tree\plant_tree06.jpg              	1	6	1	plant_tree06.jpg     	plant    	6	tree      	35	tree06      	355	alive    	1	still	0	natural 	1	n	0	0    	 	0.0	0	177.420301800128	177.520211100113	0.0999092999845743
150723	100	417	stimuli\plant\cactus\plant_cactus09.jpg          	1	6	1	plant_cactus09.jpg   	plant    	6	cactus    	4	cactus09    	48	alive    	1	still	0	natural 	1	n	0	0    	 	0.0	0	177.570277899969	177.67020480008802	0.0999269001185894
