onset	duration	eventnumber	stimulus_file	blockno	trialno	is_faststream	stim	stim_category	category_number	exemplar	exemplar_number	image_name	image_number	aliveness	aliveness_bin	movement	movement_bin	naturalness	naturalness_bin	response_hand_moves	istarget	response	keypressed	rt	correct	time_stimon	time_stimoff	stimdur
116356	100	0	stimuli\plant\grass\plant_grass04.jpg            	1	1	1	plant_grass04.jpg    	plant    	6	grass     	17	grass04     	173	alive    	1	still	0	natural 	1	n	0	0    	 	0.0	0	152.955256100046	153.055130100111	0.0998740000650286
116506	100	1	stimuli\movArt\bus\ma_bus02.jpg                  	1	1	1	ma_bus02.jpg         	movArt   	2	bus       	3	bus02       	31	not_alive	0	moves	1	artefact	0	n	0	0    	 	0.0	0	153.105301799951	153.205155699979	0.0998539000283926
116656	100	2	stimuli\animals\dog\animal_dog01.jpg             	1	1	1	animal_dog01.jpg     	animals  	0	dog       	11	dog01       	110	alive    	1	moves	1	natural 	1	n	0	0    	 	0.0	0	153.255256999983	153.355154399993	0.0998974000103771
116806	100	3	stimuli\movArt\train\ma_train03.jpg              	1	1	1	ma_train03.jpg       	movArt   	2	train     	34	train03     	342	not_alive	0	moves	1	artefact	0	n	0	0    	 	0.0	0	153.405264199944	153.505151000107	0.0998868001624941
116956	100	4	stimuli\plant2\lemontree\plant_lemontree04.jpg   	1	1	1	plant_lemontree04.jpg	plant2   	7	lemontree 	22	lemontree04 	223	alive    	1	still	0	natural 	1	n	0	0    	 	0.0	0	153.555242500035	153.655143399956	0.0999008999206125
117106	100	5	stimuli\plant\grass\plant_grass01.jpg            	1	1	1	plant_grass01.jpg    	plant    	6	grass     	17	grass01     	170	alive    	1	still	0	natural 	1	n	0	0    	 	0.0	0	153.70525320014	153.805181400152	0.0999282000120729
117256	100	6	stimuli\animals\dolphin\animal_dolphin01.jpg     	1	1	1	animal_dolphin01.jpg 	animals  	0	dolphin   	12	dolphin01   	120	alive    	1	moves	1	natural 	1	n	0	0    	 	0.0	0	153.855216399999	153.955209400039	0.0999930000398308
117406	100	7	stimuli\plant2\palmtree\plant_palmtree05.jpg     	1	1	1	plant_palmtree05.jpg 	plant2   	7	palmtree  	27	palmtree05  	274	alive    	1	still	0	natural 	1	n	0	0    	 	0.0	0	154.005316599971	154.105142600136	0.0998260001651942
117556	100	8	stimuli\plant\grass\plant_grass03.jpg            	1	1	1	plant_grass03.jpg    	plant    	6	grass     	17	grass03     	172	alive    	1	still	0	natural 	1	n	0	0    	 	0.0	0	154.155611900147	154.255151699996	0.0995397998485714
117706	100	9	stimuli\movArt\car\ma_car08.jpg                  	1	1	1	ma_car08.jpg         	movArt   	2	car       	5	car08       	57	not_alive	0	moves	1	artefact	0	n	0	0    	 	0.0	0	154.305241400143	154.4051471001	0.0999056999571621
117856	100	10	stimuli\movNat\waterfall\mn_waterfall03.jpg      	1	1	1	mn_waterfall03.jpg   	movNat   	3	waterfall 	37	waterfall03 	372	not_alive	0	moves	1	natural 	1	n	0	0    	 	0.0	0	154.45523910014902	154.555136800045	0.0998976998962462
118006	100	11	stimuli\plant\vine\plant_vine03.jpg              	1	1	1	plant_vine03.jpg     	plant    	6	vine      	36	vine03      	362	alive    	1	still	0	natural 	1	n	0	0    	 	0.0	0	154.60522180004	154.705135900062	0.0999141000211238
118156	100	12	stimuli\nonmovArt\lock\nma_lock01.jpg            	1	1	1	nma_lock01.jpg       	nonmovArt	4	lock      	24	lock01      	240	not_alive	0	still	0	artefact	0	n	0	0    	 	0.0	0	154.75525190006002	154.85515059996402	0.0998986999038606
118306	100	13	stimuli\animals2\pigeon\animal_pigeon08.jpg      	1	1	1	animal_pigeon08.jpg  	animals2 	1	pigeon    	28	pigeon08    	287	alive    	1	moves	1	natural 	1	n	0	0    	 	0.0	0	154.905140999937	155.00515160011102	0.100010600173846
118456	100	14	stimuli\plant2\fern\plant_fern07.jpg             	1	1	1	plant_fern07.jpg     	plant2   	7	fern      	14	fern07      	146	alive    	1	still	0	natural 	1	n	0	0    	 	0.0	0	155.055237699999	155.155137800146	0.0999001001473516
118606	100	15	stimuli\plant\cactus\plant_cactus08.jpg          	1	1	1	plant_cactus08.jpg   	plant    	6	cactus    	4	cactus08    	47	alive    	1	still	0	natural 	1	n	0	0    	 	0.0	0	155.20524769998198	155.305154599948	0.0999068999662995
118756	100	16	stimuli\animals\cat\animal_cat10.jpg             	1	1	1	animal_cat10.jpg     	animals  	0	cat       	6	cat10       	69	alive    	1	moves	1	natural 	1	n	0	0    	 	0.0	0	155.355260899989	155.455152899958	0.0998919999692589
118906	100	17	stimuli\animals\cat\animal_cat01.jpg             	1	1	1	animal_cat01.jpg     	animals  	0	cat       	6	cat01       	60	alive    	1	moves	1	natural 	1	n	0	0    	 	0.0	0	155.505265500164	155.605140400119	0.0998748999554664
119056	100	18	stimuli\animals\horse\animal_horse10.jpg         	1	1	1	animal_horse10.jpg   	animals  	0	horse     	20	horse10     	209	alive    	1	moves	1	natural 	1	n	0	0    	 	0.0	0	155.655242100125	155.755186400143	0.0999443000182509
119206	100	19	stimuli\plant\vine\plant_vine06.jpg              	1	1	1	plant_vine06.jpg     	plant    	6	vine      	36	vine06      	365	alive    	1	still	0	natural 	1	n	0	0    	 	0.0	0	155.80536360014202	155.90521210013	0.0998484999872744
119356	100	20	stimuli\nonmovArt\clothespeg\nma_clothespeg05.jpg	1	1	1	nma_clothespeg05.jpg 	nonmovArt	4	clothespeg	8	clothespeg05	84	not_alive	0	still	0	artefact	0	n	0	0    	 	0.0	0	155.955262399977	156.055167400045	0.0999050000682473
119506	100	21	stimuli\movArt\bus\ma_bus01.jpg                  	1	1	1	ma_bus01.jpg         	movArt   	2	bus       	3	bus01       	30	not_alive	0	moves	1	artefact	0	n	0	0    	 	0.0	0	156.105256299954	156.205157200107	0.0999009001534432
119656	100	22	stimuli\movNat\river\mn_river05.jpg              	1	1	1	mn_river05.jpg       	movNat   	3	river     	29	river05     	294	not_alive	0	moves	1	natural 	1	n	0	0    	 	0.0	0	156.25524389999902	156.355128900148	0.0998850001487881
119805	100	23	stimuli\animals\dog\animal_dog06.jpg             	1	1	1	animal_dog06.jpg     	animals  	0	dog       	11	dog06       	115	alive    	1	moves	1	natural 	1	n	0	0    	 	0.0	0	156.404353500111	156.50434079999098	0.0999872998800128
119955	100	24	stimuli\plant\tree\plant_tree02.jpg              	1	1	1	plant_tree02.jpg     	plant    	6	tree      	35	tree02      	351	alive    	1	still	0	natural 	1	n	0	0    	 	0.0	0	156.55435550003298	156.65433910000098	0.0999835999682545
120105	100	25	stimuli\nonmovArt\bench\nma_bench03.jpg          	1	1	1	nma_bench03.jpg      	nonmovArt	4	bench     	1	bench03     	12	not_alive	0	still	0	artefact	0	n	0	0    	 	0.0	0	156.704354100162	156.804338200018	0.0999840998556464
120255	100	26	stimuli\movArt\car\ma_car07.jpg                  	1	1	1	ma_car07.jpg         	movArt   	2	car       	5	car07       	56	not_alive	0	moves	1	artefact	0	n	0	0    	 	0.0	0	156.854352799943	156.95434920000798	0.09999640006572001
120405	100	27	stimuli\movNat\hotspring\mn_hotspring09.jpg      	1	1	1	mn_hotspring09.jpg   	movNat   	3	hotspring 	21	hotspring09 	218	not_alive	0	moves	1	natural 	1	n	0	0    	 	0.0	0	157.004350099945	157.104340899969	0.0999908000230789
120555	100	28	stimuli\animals\dog\animal_dog01.jpg             	1	1	1	animal_dog01.jpg     	animals  	0	dog       	11	dog01       	110	alive    	1	moves	1	natural 	1	n	0	0    	 	0.0	0	157.154341900023	157.254334199941	0.0999922999180853
120705	100	29	stimuli\animals\horse\animal_horse01.jpg         	1	1	1	animal_horse01.jpg   	animals  	0	horse     	20	horse01     	200	alive    	1	moves	1	natural 	1	n	0	0    	 	0.0	0	157.30434329994	157.404331600061	0.099988300120458
120855	100	30	stimuli\plant2\lemontree\plant_lemontree01.jpg   	1	1	1	plant_lemontree01.jpg	plant2   	7	lemontree 	22	lemontree01 	220	alive    	1	still	0	natural 	1	n	1	0    	 	0.0	0	157.454347599996	157.55432699993298	0.0999793999362737
121005	100	31	stimuli\movNat\river\mn_river03.jpg              	1	1	1	mn_river03.jpg       	movNat   	3	river     	29	river03     	292	not_alive	0	moves	1	natural 	1	n	0	0    	 	0.0	0	157.604352500057	157.704329600092	0.0999771000351756
121155	100	32	stimuli\movArt\train\ma_train07.jpg              	1	1	1	ma_train07.jpg       	movArt   	2	train     	34	train07     	346	not_alive	0	moves	1	artefact	0	n	1	1    	f	0.10092609981074901	1	157.75434770016	157.85432659997602	0.0999788998160511
121305	100	33	stimuli\animals\eagle\animal_eagle03.jpg         	1	1	1	animal_eagle03.jpg   	animals  	0	eagle     	13	eagle03     	132	alive    	1	moves	1	natural 	1	n	0	0    	 	0.0	0	157.904356000014	158.00434400001498	0.0999880000017583
121455	100	34	stimuli\nonmovArt\headphones\nma_headphones03.jpg	1	1	1	nma_headphones03.jpg 	nonmovArt	4	headphones	18	headphones03	182	not_alive	0	still	0	artefact	0	n	0	0    	 	0.0	0	158.054353300016	158.154342300026	0.0999890000093728
121605	100	35	stimuli\plant2\lemontree\plant_lemontree07.jpg   	1	1	1	plant_lemontree07.jpg	plant2   	7	lemontree 	22	lemontree07 	226	alive    	1	still	0	natural 	1	n	0	1    	f	0.5420047999359671	1	158.204350200016	158.304340000032	0.0999898000154644
121755	100	36	stimuli\nonmovNat\cliff\nmn_cliff06.jpg          	1	1	1	nmn_cliff06.jpg      	nonmovNat	5	cliff     	7	cliff06     	75	not_alive	0	still	0	natural 	1	n	0	0    	 	0.0	0	158.354347800137	158.454334400129	0.099986599991098
121905	100	37	stimuli\nonmovNat\crystal\nmn_crystal05.jpg      	1	1	1	nmn_crystal05.jpg    	nonmovNat	5	crystal   	10	crystal05   	104	not_alive	0	still	0	natural 	1	n	0	0    	 	0.0	0	158.504347600043	158.604336899938	0.0999892998952418
122055	100	38	stimuli\plant2\palmtree\plant_palmtree03.jpg     	1	1	1	plant_palmtree03.jpg 	plant2   	7	palmtree  	27	palmtree03  	272	alive    	1	still	0	natural 	1	n	0	0    	 	0.0	0	158.654342700029	158.75435329997	0.10001059994101501
122205	100	39	stimuli\nonmovNat\cliff\nmn_cliff06.jpg          	1	1	1	nmn_cliff06.jpg      	nonmovNat	5	cliff     	7	cliff06     	75	not_alive	0	still	0	natural 	1	n	0	0    	 	0.0	0	158.804344200063	158.904333000071	0.0999888000078499
122355	100	40	stimuli\animals2\pigeon\animal_pigeon05.jpg      	1	1	1	animal_pigeon05.jpg  	animals2 	1	pigeon    	28	pigeon05    	284	alive    	1	moves	1	natural 	1	n	0	0    	 	0.0	0	158.954342900077	159.05432799994	0.0999850998632609
122505	100	41	stimuli\animals2\bee\animal_bee04.jpg            	1	1	1	animal_bee04.jpg     	animals2 	1	bee       	0	bee04       	3	alive    	1	moves	1	natural 	1	n	0	0    	 	0.0	0	159.104338899953	159.204329800094	0.0999909001402556
122655	100	42	stimuli\nonmovNat\rock\nmn_rock09.jpg            	1	1	1	nmn_rock09.jpg       	nonmovNat	5	rock      	30	rock09      	308	not_alive	0	still	0	natural 	1	n	0	0    	 	0.0	0	159.254339500098	159.35434760013598	0.100008100038394
122805	100	43	stimuli\animals2\whale\animal_whale03.jpg        	1	1	1	animal_whale03.jpg   	animals2 	1	whale     	39	whale03     	392	alive    	1	moves	1	natural 	1	n	0	0    	 	0.0	0	159.404339300003	159.504324800102	0.0999855000991374
122955	100	44	stimuli\nonmovNat\sand\nmn_sand03.jpg            	1	1	1	nmn_sand03.jpg       	nonmovNat	5	sand      	31	sand03      	312	not_alive	0	still	0	natural 	1	n	0	0    	 	0.0	0	159.554338100133	159.65432410012	0.0999859999865293
123105	100	45	stimuli\nonmovArt\mug\nma_mug01.jpg              	1	1	1	nma_mug01.jpg        	nonmovArt	4	mug       	26	mug01       	260	not_alive	0	still	0	artefact	0	n	0	0    	 	0.0	0	159.70433460013	159.80432510003402	0.0999904999043792
123255	100	46	stimuli\movNat\waterfall\mn_waterfall09.jpg      	1	1	1	mn_waterfall09.jpg   	movNat   	3	waterfall 	37	waterfall09 	378	not_alive	0	moves	1	natural 	1	n	0	0    	 	0.0	0	159.854330800008	159.954324099934	0.0999932999256998
123405	100	47	stimuli\nonmovNat\crystal\nmn_crystal01.jpg      	1	1	1	nmn_crystal01.jpg    	nonmovNat	5	crystal   	10	crystal01   	100	not_alive	0	still	0	natural 	1	n	0	0    	 	0.0	0	160.004331200151	160.10432370007	0.0999924999196082
123555	100	48	stimuli\movArt\train\ma_train02.jpg              	1	1	1	ma_train02.jpg       	movArt   	2	train     	34	train02     	341	not_alive	0	moves	1	artefact	0	n	0	0    	 	0.0	0	160.15433329995702	160.254318499938	0.0999851999804377
123705	100	49	stimuli\movArt\helicopter\ma_helicopter01.jpg    	1	1	1	ma_helicopter01.jpg  	movArt   	2	helicopter	19	helicopter01	190	not_alive	0	moves	1	artefact	0	n	0	0    	 	0.0	0	160.304330100073	160.40431790007298	0.0999878000002354
123855	100	50	stimuli\plant2\clover\plant_clover02.jpg         	1	1	1	plant_clover02.jpg   	plant2   	7	clover    	9	clover02    	91	alive    	1	still	0	natural 	1	n	0	1    	f	0.0	0	160.454327800078	160.55431760009398	0.0999898000154644
124005	100	51	stimuli\plant2\fern\plant_fern01.jpg             	1	1	1	plant_fern01.jpg     	plant2   	7	fern      	14	fern01      	140	alive    	1	still	0	natural 	1	n	0	0    	 	0.0	0	160.604341499973	160.704315999988	0.099974500015378
124155	100	52	stimuli\plant2\moss\plant_moss10.jpg             	1	1	1	plant_moss10.jpg     	plant2   	7	moss      	25	moss10      	259	alive    	1	still	0	natural 	1	n	0	0    	 	0.0	0	160.754324899986	160.854312299984	0.0999873999971896
124305	100	53	stimuli\animals2\lemur\animal_lemur03.jpg        	1	1	1	animal_lemur03.jpg   	animals2 	1	lemur     	23	lemur03     	232	alive    	1	moves	1	natural 	1	n	0	0    	 	0.0	0	160.904325500131	161.00431400002	0.0999884998891502
124455	100	54	stimuli\animals\eagle\animal_eagle06.jpg         	1	1	1	animal_eagle06.jpg   	animals  	0	eagle     	13	eagle06     	135	alive    	1	moves	1	natural 	1	n	0	0    	 	0.0	0	161.054327399936	161.154312600149	0.0999852002132684
124605	100	55	stimuli\animals2\whale\animal_whale05.jpg        	1	1	1	animal_whale05.jpg   	animals2 	1	whale     	39	whale05     	394	alive    	1	moves	1	natural 	1	n	0	0    	 	0.0	0	161.204323600046	161.304332799977	0.100009199930355
124755	100	56	stimuli\movNat\waves\mn_waves06.jpg              	1	1	1	mn_waves06.jpg       	movNat   	3	waves     	38	waves06     	385	not_alive	0	moves	1	natural 	1	n	1	0    	 	0.0	0	161.354319600156	161.454307200154	0.0999875999987125
124905	100	57	stimuli\movArt\helicopter\ma_helicopter09.jpg    	1	1	1	ma_helicopter09.jpg  	movArt   	2	helicopter	19	helicopter09	198	not_alive	0	moves	1	artefact	0	n	0	0    	 	0.0	0	161.50431960006202	161.604306000052	0.0999863999895751
125055	100	58	stimuli\movNat\waves\mn_waves03.jpg              	1	1	1	mn_waves03.jpg       	movNat   	3	waves     	38	waves03     	382	not_alive	0	moves	1	natural 	1	n	0	0    	 	0.0	0	161.654319100082	161.754306100076	0.0999869999941438
125205	100	59	stimuli\nonmovNat\shell\nmn_shell08.jpg          	1	1	1	nmn_shell08.jpg      	nonmovNat	5	shell     	32	shell08     	327	not_alive	0	still	0	natural 	1	n	0	1    	f	0.541976699838415	1	161.804314899957	161.90430549997802	0.099990600021556
125355	100	60	stimuli\animals2\whale\animal_whale06.jpg        	1	1	1	animal_whale06.jpg   	animals2 	1	whale     	39	whale06     	395	alive    	1	moves	1	natural 	1	n	0	0    	 	0.0	0	161.954313100083	162.054262300022	0.0999491999391466
125505	100	61	stimuli\plant\flower\plant_flower03.jpg          	1	1	1	plant_flower03.jpg   	plant    	6	flower    	16	flower03    	162	alive    	1	still	0	natural 	1	n	0	0    	 	0.0	0	162.104304200038	162.204294400057	0.0999902000185102
125655	100	62	stimuli\nonmovArt\clothespeg\nma_clothespeg04.jpg	1	1	1	nma_clothespeg04.jpg 	nonmovArt	4	clothespeg	8	clothespeg04	83	not_alive	0	still	0	artefact	0	n	1	0    	 	0.0	0	162.254312900128	162.354292999953	0.0999800998251885
125805	100	63	stimuli\nonmovNat\rock\nmn_rock08.jpg            	1	1	1	nmn_rock08.jpg       	nonmovNat	5	rock      	30	rock08      	307	not_alive	0	still	0	natural 	1	n	0	0    	 	0.0	0	162.40430149994802	162.504293400096	0.0999919001478701
125955	100	64	stimuli\movNat\hotspring\mn_hotspring06.jpg      	1	1	1	mn_hotspring06.jpg   	movNat   	3	hotspring 	21	hotspring06 	215	not_alive	0	moves	1	natural 	1	n	0	0    	 	0.0	0	162.554292600136	162.65428400016398	0.0999914000276476
126105	100	65	stimuli\animals2\bee\animal_bee03.jpg            	1	1	1	animal_bee03.jpg     	animals2 	1	bee       	0	bee03       	2	alive    	1	moves	1	natural 	1	n	0	0    	 	0.0	0	162.70429270016	162.804278100142	0.0999853999819606
126255	100	66	stimuli\plant2\palmtree\plant_palmtree07.jpg     	1	1	1	plant_palmtree07.jpg 	plant2   	7	palmtree  	27	palmtree07  	276	alive    	1	still	0	natural 	1	n	0	0    	 	0.0	0	162.85428930004102	162.95433200011	0.10004270006902499
126405	100	67	stimuli\animals2\lemur\animal_lemur07.jpg        	1	1	1	animal_lemur07.jpg   	animals2 	1	lemur     	23	lemur07     	236	alive    	1	moves	1	natural 	1	n	0	0    	 	0.0	0	163.004317600047	163.104284300003	0.0999666999559849
126555	100	68	stimuli\plant\tree\plant_tree05.jpg              	1	1	1	plant_tree05.jpg     	plant    	6	tree      	35	tree05      	354	alive    	1	still	0	natural 	1	n	0	0    	 	0.0	0	163.15429610014	163.25428430014298	0.0999882000032812
126705	100	69	stimuli\movNat\fire\mn_fire04.jpg                	1	1	1	mn_fire04.jpg        	movNat   	3	fire      	15	fire04      	153	not_alive	0	moves	1	natural 	1	n	0	0    	 	0.0	0	163.304292800138	163.404281900032	0.0999890998937189
126855	100	70	stimuli\animals\cat\animal_cat09.jpg             	1	1	1	animal_cat09.jpg     	animals  	0	cat       	6	cat09       	68	alive    	1	moves	1	natural 	1	n	0	0    	 	0.0	0	163.454292300157	163.554280900164	0.09998860000632699
127005	100	71	stimuli\nonmovNat\shell\nmn_shell04.jpg          	1	1	1	nmn_shell04.jpg      	nonmovNat	5	shell     	32	shell04     	323	not_alive	0	still	0	natural 	1	n	0	0    	 	0.0	0	163.604276800063	163.704274500022	0.0999976999592036
127155	100	72	stimuli\animals\dolphin\animal_dolphin04.jpg     	1	1	1	animal_dolphin04.jpg 	animals  	0	dolphin   	12	dolphin04   	123	alive    	1	moves	1	natural 	1	n	0	0    	 	0.0	0	163.754284700146	163.854280299973	0.0999955998267978
127305	100	73	stimuli\movArt\helicopter\ma_helicopter06.jpg    	1	1	1	ma_helicopter06.jpg  	movArt   	2	helicopter	19	helicopter06	195	not_alive	0	moves	1	artefact	0	n	0	0    	 	0.0	0	163.904285999946	164.00427120016002	0.0999852002132684
127455	100	74	stimuli\plant2\clover\plant_clover01.jpg         	1	1	1	plant_clover01.jpg   	plant2   	7	clover    	9	clover01    	90	alive    	1	still	0	natural 	1	n	0	0    	 	0.0	0	164.05428989999902	164.154275200097	0.0999853000976145
127605	100	75	stimuli\nonmovNat\rock\nmn_rock02.jpg            	1	1	1	nmn_rock02.jpg       	nonmovNat	5	rock      	30	rock02      	301	not_alive	0	still	0	natural 	1	n	0	0    	 	0.0	0	164.20428610011	164.304268799955	0.0999826998449862
127755	100	76	stimuli\plant2\moss\plant_moss02.jpg             	1	1	1	plant_moss02.jpg     	plant2   	7	moss      	25	moss02      	251	alive    	1	still	0	natural 	1	n	0	0    	 	0.0	0	164.354279000079	164.454272800125	0.0999938000459224
127905	100	77	stimuli\nonmovArt\clothespeg\nma_clothespeg01.jpg	1	1	1	nma_clothespeg01.jpg 	nonmovArt	4	clothespeg	8	clothespeg01	80	not_alive	0	still	0	artefact	0	n	0	0    	 	0.0	0	164.504284700146	164.604278200073	0.0999934999272227
128055	100	78	stimuli\nonmovArt\lock\nma_lock05.jpg            	1	1	1	nma_lock05.jpg       	nonmovArt	4	lock      	24	lock05      	244	not_alive	0	still	0	artefact	0	n	0	0    	 	0.0	0	164.654271299951	164.75431190012	0.10004060016944999
128205	100	79	stimuli\nonmovArt\headphones\nma_headphones07.jpg	1	1	1	nma_headphones07.jpg 	nonmovArt	4	headphones	18	headphones07	186	not_alive	0	still	0	artefact	0	n	0	0    	 	0.0	0	164.80427910014998	164.904269299936	0.0999901997856795
138689	100	80	stimuli\animals2\bee\animal_bee02.jpg            	1	2	1	animal_bee02.jpg     	animals2 	1	bee       	0	bee02       	1	alive    	1	moves	1	natural 	1	n	0	0    	 	0.0	0	175.28840159997299	175.388282000087	0.0998804001137614
138839	100	81	stimuli\animals2\pigeon\animal_pigeon10.jpg      	1	2	1	animal_pigeon10.jpg  	animals2 	1	pigeon    	28	pigeon10    	289	alive    	1	moves	1	natural 	1	n	0	0    	 	0.0	0	175.438369400101	175.538282599999	0.0999131998978555
138989	100	82	stimuli\nonmovArt\bench\nma_bench02.jpg          	1	2	1	nma_bench02.jpg      	nonmovArt	4	bench     	1	bench02     	11	not_alive	0	still	0	artefact	0	n	0	0    	 	0.0	0	175.588376899948	175.68830489995898	0.09992800001055001
139139	100	83	stimuli\animals2\tiger\animal_tiger09.jpg        	1	2	1	animal_tiger09.jpg   	animals2 	1	tiger     	33	tiger09     	338	alive    	1	moves	1	natural 	1	n	0	0    	 	0.0	0	175.738383400021	175.838345099939	0.0999616999179124
139289	100	84	stimuli\nonmovArt\mug\nma_mug05.jpg              	1	2	1	nma_mug05.jpg        	nonmovArt	4	mug       	26	mug05       	264	not_alive	0	still	0	artefact	0	n	0	0    	 	0.0	0	175.88837049994598	175.988276700024	0.0999062000773847
139439	100	85	stimuli\nonmovNat\crystal\nmn_crystal02.jpg      	1	2	1	nmn_crystal02.jpg    	nonmovNat	5	crystal   	10	crystal02   	101	not_alive	0	still	0	natural 	1	n	0	0    	 	0.0	0	176.03838100004901	176.138286900008	0.099905899958685
139589	100	86	stimuli\plant\flower\plant_flower02.jpg          	1	2	1	plant_flower02.jpg   	plant    	6	flower    	16	flower02    	161	alive    	1	still	0	natural 	1	n	0	0    	 	0.0	0	176.18836829997602	176.288274999941	0.0999066999647766
139739	100	87	stimuli\plant\cactus\plant_cactus01.jpg          	1	2	1	plant_cactus01.jpg   	plant    	6	cactus    	4	cactus01    	40	alive    	1	still	0	natural 	1	n	0	0    	 	0.0	0	176.338374700164	176.438271099934	0.09989639976993199
139889	100	88	stimuli\movArt\boat\ma_boat06.jpg                	1	2	1	ma_boat06.jpg        	movArt   	2	boat      	2	boat06      	25	not_alive	0	moves	1	artefact	0	n	0	0    	 	0.0	0	176.488378999988	176.588268700056	0.0998897000681608
140039	100	89	stimuli\animals2\tiger\animal_tiger03.jpg        	1	2	1	animal_tiger03.jpg   	animals2 	1	tiger     	33	tiger03     	332	alive    	1	moves	1	natural 	1	n	0	0    	 	0.0	0	176.638361399993	176.738275600132	0.0999142001383006
140189	100	90	stimuli\movNat\waterfall\mn_waterfall07.jpg      	1	2	1	mn_waterfall07.jpg   	movNat   	3	waterfall 	37	waterfall07 	376	not_alive	0	moves	1	natural 	1	n	0	0    	 	0.0	0	176.78836659994	176.888270700118	0.0999041001778096
140339	100	91	stimuli\animals\eagle\animal_eagle09.jpg         	1	2	1	animal_eagle09.jpg   	animals  	0	eagle     	13	eagle09     	138	alive    	1	moves	1	natural 	1	n	1	0    	 	0.0	0	176.938369099982	177.03826300008203	0.0998939001001417
140489	100	92	stimuli\movArt\boat\ma_boat08.jpg                	1	2	1	ma_boat08.jpg        	movArt   	2	boat      	2	boat08      	27	not_alive	0	moves	1	artefact	0	n	0	0    	 	0.0	0	177.088364799973	177.18826600001202	0.0999012000393122
140639	100	93	stimuli\movArt\bus\ma_bus10.jpg                  	1	2	1	ma_bus10.jpg         	movArt   	2	bus       	3	bus10       	39	not_alive	0	moves	1	artefact	0	n	0	1    	f	0.392150799976662	1	177.238383600023	177.338298599934	0.0999149999115616
140789	100	94	stimuli\nonmovArt\bench\nma_bench07.jpg          	1	2	1	nma_bench07.jpg      	nonmovArt	4	bench     	1	bench07     	16	not_alive	0	still	0	artefact	0	n	0	0    	 	0.0	0	177.388523699949	177.488271000097	0.0997473001480102
140939	100	95	stimuli\animals\dolphin\animal_dolphin03.jpg     	1	2	1	animal_dolphin03.jpg 	animals  	0	dolphin   	12	dolphin03   	122	alive    	1	moves	1	natural 	1	n	0	0    	 	0.0	0	177.53837230009998	177.63835739996298	0.0999850998632609
141089	100	96	stimuli\animals2\tiger\animal_tiger03.jpg        	1	2	1	animal_tiger03.jpg   	animals2 	1	tiger     	33	tiger03     	332	alive    	1	moves	1	natural 	1	n	0	0    	 	0.0	0	177.68834430002602	177.788345800014	0.10000149998813901
141239	100	97	stimuli\nonmovArt\headphones\nma_headphones01.jpg	1	2	1	nma_headphones01.jpg 	nonmovArt	4	headphones	18	headphones01	180	not_alive	0	still	0	artefact	0	n	0	0    	 	0.0	0	177.838360300055	177.938272000058	0.0999117000028491
141389	100	98	stimuli\animals\horse\animal_horse10.jpg         	1	2	1	animal_horse10.jpg   	animals  	0	horse     	20	horse10     	209	alive    	1	moves	1	natural 	1	n	0	0    	 	0.0	0	177.988343999954	178.088250200031	0.0999062000773847
141539	100	99	stimuli\nonmovNat\shell\nmn_shell08.jpg          	1	2	1	nmn_shell08.jpg      	nonmovNat	5	shell     	32	shell08     	327	not_alive	0	still	0	natural 	1	n	0	0    	 	0.0	0	178.138364500133	178.23826769995497	0.0999031998217106
141689	100	100	stimuli\movNat\fire\mn_fire09.jpg                	1	2	1	mn_fire09.jpg        	movNat   	3	fire      	15	fire09      	158	not_alive	0	moves	1	natural 	1	n	0	0    	 	0.0	0	178.28835569997298	178.38826310006002	0.0999074000865221
141839	100	101	stimuli\movNat\hotspring\mn_hotspring06.jpg      	1	2	1	mn_hotspring06.jpg   	movNat   	3	hotspring 	21	hotspring06 	215	not_alive	0	moves	1	natural 	1	n	0	0    	 	0.0	0	178.43835019995498	178.53824080014599	0.0998906001914292
141989	100	102	stimuli\plant\cactus\plant_cactus08.jpg          	1	2	1	plant_cactus08.jpg   	plant    	6	cactus    	4	cactus08    	47	alive    	1	still	0	natural 	1	n	0	0    	 	0.0	0	178.588343100157	178.688249000115	0.099905899958685
142139	100	103	stimuli\movNat\waves\mn_waves07.jpg              	1	2	1	mn_waves07.jpg       	movNat   	3	waves     	38	waves07     	386	not_alive	0	moves	1	natural 	1	n	0	0    	 	0.0	0	178.738364800112	178.838250600034	0.099885799922049
142289	100	104	stimuli\movNat\river\mn_river03.jpg              	1	2	1	mn_river03.jpg       	movNat   	3	river     	29	river03     	292	not_alive	0	moves	1	natural 	1	n	0	0    	 	0.0	0	178.888336900156	178.98824460012798	0.0999076999723911
142439	100	105	stimuli\plant2\moss\plant_moss07.jpg             	1	2	1	plant_moss07.jpg     	plant2   	7	moss      	25	moss07      	256	alive    	1	still	0	natural 	1	n	0	0    	 	0.0	0	179.038365999935	179.138261500048	0.0998955001123249
142589	100	106	stimuli\movNat\fire\mn_fire08.jpg                	1	2	1	mn_fire08.jpg        	movNat   	3	fire      	15	fire08      	157	not_alive	0	moves	1	natural 	1	n	0	0    	 	0.0	0	179.188330000034	179.288258699933	0.0999286998994648
142739	100	107	stimuli\plant2\clover\plant_clover10.jpg         	1	2	1	plant_clover10.jpg   	plant2   	7	clover    	9	clover10    	99	alive    	1	still	0	natural 	1	n	0	0    	 	0.0	0	179.33835770003503	179.438261100091	0.0999034000560641
142889	100	108	stimuli\nonmovNat\cliff\nmn_cliff06.jpg          	1	2	1	nmn_cliff06.jpg      	nonmovNat	5	cliff     	7	cliff06     	75	not_alive	0	still	0	natural 	1	n	0	0    	 	0.0	0	179.488338800147	179.588248500135	0.0999096999876201
143039	100	109	stimuli\animals2\lemur\animal_lemur04.jpg        	1	2	1	animal_lemur04.jpg   	animals2 	1	lemur     	23	lemur04     	233	alive    	1	moves	1	natural 	1	n	0	0    	 	0.0	0	179.638350600144	179.738242299994	0.0998916998505592
143189	100	110	stimuli\plant\vine\plant_vine08.jpg              	1	2	1	plant_vine08.jpg     	plant    	6	vine      	36	vine08      	367	alive    	1	still	0	natural 	1	n	0	0    	 	0.0	0	179.788325600093	179.888241000008	0.0999153999146074
143339	100	111	stimuli\plant\flower\plant_flower02.jpg          	1	2	1	plant_flower02.jpg   	plant    	6	flower    	16	flower02    	161	alive    	1	still	0	natural 	1	n	0	0    	 	0.0	0	179.93834430002602	180.038243399933	0.0998990999069064
143489	100	112	stimuli\movArt\car\ma_car08.jpg                  	1	2	1	ma_car08.jpg         	movArt   	2	car       	5	car08       	57	not_alive	0	moves	1	artefact	0	n	0	0    	 	0.0	0	180.08834300003898	180.18823900003898	0.0998959999997168
143639	100	113	stimuli\nonmovNat\sand\nmn_sand06.jpg            	1	2	1	nmn_sand06.jpg       	nonmovNat	5	sand      	31	sand06      	315	not_alive	0	still	0	natural 	1	n	0	0    	 	0.0	0	180.23834799998403	180.338246300118	0.0998983001336455
143789	100	114	stimuli\plant\tree\plant_tree03.jpg              	1	2	1	plant_tree03.jpg     	plant    	6	tree      	35	tree03      	352	alive    	1	still	0	natural 	1	n	0	0    	 	0.0	0	180.38833010010399	180.48824029997897	0.09991019987501198
143939	100	115	stimuli\plant2\fern\plant_fern03.jpg             	1	2	1	plant_fern03.jpg     	plant2   	7	fern      	14	fern03      	142	alive    	1	still	0	natural 	1	n	0	0    	 	0.0	0	180.53833519993302	180.63823710009498	0.0999019001610577
144089	100	116	stimuli\nonmovNat\sand\nmn_sand07.jpg            	1	2	1	nmn_sand07.jpg       	nonmovNat	5	sand      	31	sand07      	316	not_alive	0	still	0	natural 	1	n	0	0    	 	0.0	0	180.688337899977	180.788228099933	0.0998901999555528
144239	100	117	stimuli\nonmovArt\mug\nma_mug06.jpg              	1	2	1	nma_mug06.jpg        	nonmovArt	4	mug       	26	mug06       	265	not_alive	0	still	0	artefact	0	n	0	0    	 	0.0	0	180.838341000024	180.93822650006	0.09988550003618
144389	100	118	stimuli\nonmovArt\lock\nma_lock03.jpg            	1	2	1	nma_lock03.jpg       	nonmovArt	4	lock      	24	lock03      	242	not_alive	0	still	0	artefact	0	n	0	0    	 	0.0	0	180.98834419995498	181.08823759993498	0.0998933999799192
144539	100	119	stimuli\movArt\boat\ma_boat03.jpg                	1	2	1	ma_boat03.jpg        	movArt   	2	boat      	2	boat03      	22	not_alive	0	moves	1	artefact	0	n	0	0    	 	0.0	0	181.13840040005698	181.23824640014197	0.0998460000846535
144689	100	120	stimuli\nonmovNat\cliff\nmn_cliff02.jpg          	1	2	1	nmn_cliff02.jpg      	nonmovNat	5	cliff     	7	cliff02     	71	not_alive	0	still	0	natural 	1	n	0	0    	 	0.0	0	181.288431700086	181.38823250006	0.099800799973309
144839	100	121	stimuli\nonmovNat\crystal\nmn_crystal09.jpg      	1	2	1	nmn_crystal09.jpg    	nonmovNat	5	crystal   	10	crystal09   	108	not_alive	0	still	0	natural 	1	n	0	0    	 	0.0	0	181.438346400158	181.538228899939	0.0998824997805059
144989	100	122	stimuli\plant\vine\plant_vine09.jpg              	1	2	1	plant_vine09.jpg     	plant    	6	vine      	36	vine09      	368	alive    	1	still	0	natural 	1	n	0	0    	 	0.0	0	181.58833860000598	181.68821960012403	0.0998810001183301
145139	100	123	stimuli\animals\dog\animal_dog01.jpg             	1	2	1	animal_dog01.jpg     	animals  	0	dog       	11	dog01       	110	alive    	1	moves	1	natural 	1	n	0	0    	 	0.0	0	181.738329099957	181.83819449995602	0.09986539999954401
145289	100	124	stimuli\nonmovArt\lock\nma_lock04.jpg            	1	2	1	nma_lock04.jpg       	nonmovArt	4	lock      	24	lock04      	243	not_alive	0	still	0	artefact	0	n	0	0    	 	0.0	0	181.88830420002301	181.988233800046	0.0999296000227332
145439	100	125	stimuli\movNat\river\mn_river10.jpg              	1	2	1	mn_river10.jpg       	movNat   	3	river     	29	river10     	299	not_alive	0	moves	1	natural 	1	n	0	0    	 	0.0	0	182.03832409996497	182.13823190005502	0.0999078000895679
145589	100	126	stimuli\movNat\fire\mn_fire05.jpg                	1	2	1	mn_fire05.jpg        	movNat   	3	fire      	15	fire05      	154	not_alive	0	moves	1	natural 	1	n	0	0    	 	0.0	0	182.188315200154	182.288217900088	0.0999026999343186
145739	100	127	stimuli\plant\vine\plant_vine01.jpg              	1	2	1	plant_vine01.jpg     	plant    	6	vine      	36	vine01      	360	alive    	1	still	0	natural 	1	n	0	0    	 	0.0	0	182.338326300029	182.438217200106	0.0998909000772982
145889	100	128	stimuli\animals\cat\animal_cat05.jpg             	1	2	1	animal_cat05.jpg     	animals  	0	cat       	6	cat05       	64	alive    	1	moves	1	natural 	1	n	0	0    	 	0.0	0	182.48833500011798	182.588231500005	0.0998964998871088
146039	100	129	stimuli\animals2\pigeon\animal_pigeon02.jpg      	1	2	1	animal_pigeon02.jpg  	animals2 	1	pigeon    	28	pigeon02    	281	alive    	1	moves	1	natural 	1	n	0	0    	 	0.0	0	182.638330599992	182.73821290000302	0.0998823000118136
146189	100	130	stimuli\nonmovNat\shell\nmn_shell06.jpg          	1	2	1	nmn_shell06.jpg      	nonmovNat	5	shell     	32	shell06     	325	not_alive	0	still	0	natural 	1	n	0	0    	 	0.0	0	182.78832460008599	182.888212700142	0.0998881000559777
146339	100	131	stimuli\animals2\lemur\animal_lemur01.jpg        	1	2	1	animal_lemur01.jpg   	animals2 	1	lemur     	23	lemur01     	230	alive    	1	moves	1	natural 	1	n	0	0    	 	0.0	0	182.93839980009898	183.038226200035	0.0998263999354094
146489	100	132	stimuli\plant\tree\plant_tree09.jpg              	1	2	1	plant_tree09.jpg     	plant    	6	tree      	35	tree09      	358	alive    	1	still	0	natural 	1	n	0	0    	 	0.0	0	183.088321299991	183.18820810015302	0.0998868001624941
146639	100	133	stimuli\plant2\clover\plant_clover06.jpg         	1	2	1	plant_clover06.jpg   	plant2   	7	clover    	9	clover06    	95	alive    	1	still	0	natural 	1	n	0	0    	 	0.0	0	183.238326099934	183.33821970014802	0.0998936002142727
146789	100	134	stimuli\animals2\pigeon\animal_pigeon06.jpg      	1	2	1	animal_pigeon06.jpg  	animals2 	1	pigeon    	28	pigeon06    	285	alive    	1	moves	1	natural 	1	n	0	0    	 	0.0	0	183.388295100071	183.48821100010503	0.0999159000348299
146939	100	135	stimuli\movArt\bus\ma_bus07.jpg                  	1	2	1	ma_bus07.jpg         	movArt   	2	bus       	3	bus07       	36	not_alive	0	moves	1	artefact	0	n	0	0    	 	0.0	0	183.53831179998798	183.63822440011398	0.0999126001261174
147089	100	136	stimuli\nonmovArt\bench\nma_bench05.jpg          	1	2	1	nma_bench05.jpg      	nonmovArt	4	bench     	1	bench05     	14	not_alive	0	still	0	artefact	0	n	0	0    	 	0.0	0	183.68830140004903	183.788202699972	0.0999012999236583
147239	100	137	stimuli\animals\horse\animal_horse03.jpg         	1	2	1	animal_horse03.jpg   	animals  	0	horse     	20	horse03     	202	alive    	1	moves	1	natural 	1	n	0	0    	 	0.0	0	183.838302399963	183.938207600033	0.0999052000697702
147389	100	138	stimuli\plant\cactus\plant_cactus10.jpg          	1	2	1	plant_cactus10.jpg   	plant    	6	cactus    	4	cactus10    	49	alive    	1	still	0	natural 	1	n	0	0    	 	0.0	0	183.988289800007	184.088205200154	0.09991540014743801
147539	100	139	stimuli\nonmovNat\cliff\nmn_cliff07.jpg          	1	2	1	nmn_cliff07.jpg      	nonmovNat	5	cliff     	7	cliff07     	76	not_alive	0	still	0	natural 	1	n	0	0    	 	0.0	0	184.13829180016202	184.238204200054	0.0999123998917639
147689	100	140	stimuli\animals\dolphin\animal_dolphin06.jpg     	1	2	1	animal_dolphin06.jpg 	animals  	0	dolphin   	12	dolphin06   	125	alive    	1	moves	1	natural 	1	n	0	0    	 	0.0	0	184.28828079998502	184.388202900067	0.0999221000820398
147839	100	141	stimuli\animals2\lemur\animal_lemur02.jpg        	1	2	1	animal_lemur02.jpg   	animals2 	1	lemur     	23	lemur02     	231	alive    	1	moves	1	natural 	1	n	1	0    	 	0.0	0	184.438301699935	184.538220799994	0.0999191000591963
147989	100	142	stimuli\animals\dog\animal_dog04.jpg             	1	2	1	animal_dog04.jpg     	animals  	0	dog       	11	dog04       	113	alive    	1	moves	1	natural 	1	n	0	0    	 	0.0	0	184.588289600099	184.688251200132	0.0999616000335663
148139	100	143	stimuli\movArt\helicopter\ma_helicopter05.jpg    	1	2	1	ma_helicopter05.jpg  	movArt   	2	helicopter	19	helicopter05	194	not_alive	0	moves	1	artefact	0	n	0	1    	f	0.392106100218371	1	184.73841580003503	184.838302700082	0.0998869000468403
148289	100	144	stimuli\plant\tree\plant_tree03.jpg              	1	2	1	plant_tree03.jpg     	plant    	6	tree      	35	tree03      	352	alive    	1	still	0	natural 	1	n	0	0    	 	0.0	0	184.888310400071	184.988202200038	0.0998917999677359
148439	100	145	stimuli\nonmovArt\mug\nma_mug04.jpg              	1	2	1	nma_mug04.jpg        	nonmovArt	4	mug       	26	mug04       	263	not_alive	0	still	0	artefact	0	n	0	0    	 	0.0	0	185.038290299941	185.13818220002602	0.0998919000849127
148589	100	146	stimuli\movNat\waterfall\mn_waterfall05.jpg      	1	2	1	mn_waterfall05.jpg   	movNat   	3	waterfall 	37	waterfall05 	374	not_alive	0	moves	1	natural 	1	n	0	0    	 	0.0	0	185.18828280014	185.288180000149	0.0998972000088542
148739	100	147	stimuli\plant2\fern\plant_fern08.jpg             	1	2	1	plant_fern08.jpg     	plant2   	7	fern      	14	fern08      	147	alive    	1	still	0	natural 	1	n	0	0    	 	0.0	0	185.338294100016	185.438195300056	0.0999012000393122
148889	100	148	stimuli\nonmovNat\sand\nmn_sand07.jpg            	1	2	1	nmn_sand07.jpg       	nonmovNat	5	sand      	31	sand07      	316	not_alive	0	still	0	natural 	1	n	0	0    	 	0.0	0	185.48828590009398	185.588192899944	0.0999069998506456
149039	100	149	stimuli\plant2\palmtree\plant_palmtree10.jpg     	1	2	1	plant_palmtree10.jpg 	plant2   	7	palmtree  	27	palmtree10  	279	alive    	1	still	0	natural 	1	n	0	0    	 	0.0	0	185.638297900092	185.738185800146	0.0998879000544548
149189	100	150	stimuli\plant2\palmtree\plant_palmtree06.jpg     	1	2	1	plant_palmtree06.jpg 	plant2   	7	palmtree  	27	palmtree06  	275	alive    	1	still	0	natural 	1	n	0	0    	 	0.0	0	185.788280700101	185.88818340003502	0.0999026999343186
149339	100	151	stimuli\movNat\fire\mn_fire03.jpg                	1	2	1	mn_fire03.jpg        	movNat   	3	fire      	15	fire03      	152	not_alive	0	moves	1	natural 	1	n	0	0    	 	0.0	0	185.938295200001	186.03818690008498	0.0998917000833898
149489	100	152	stimuli\plant\grass\plant_grass05.jpg            	1	2	1	plant_grass05.jpg    	plant    	6	grass     	17	grass05     	174	alive    	1	still	0	natural 	1	n	0	0    	 	0.0	0	186.088280700147	186.188193900045	0.0999131998978555
149639	100	153	stimuli\plant2\palmtree\plant_palmtree01.jpg     	1	2	1	plant_palmtree01.jpg 	plant2   	7	palmtree  	27	palmtree01  	270	alive    	1	still	0	natural 	1	n	0	0    	 	0.0	0	186.238277200144	186.33820380014402	0.0999265999998897
149789	100	154	stimuli\animals\horse\animal_horse03.jpg         	1	2	1	animal_horse03.jpg   	animals  	0	horse     	20	horse03     	202	alive    	1	moves	1	natural 	1	n	0	0    	 	0.0	0	186.38826050004	186.48826100002	0.100000499980524
149939	100	155	stimuli\animals2\pigeon\animal_pigeon07.jpg      	1	2	1	animal_pigeon07.jpg  	animals2 	1	pigeon    	28	pigeon07    	286	alive    	1	moves	1	natural 	1	n	0	0    	 	0.0	0	186.53829329996398	186.638267399976	0.0999741000123322
150089	100	156	stimuli\movNat\waterfall\mn_waterfall04.jpg      	1	2	1	mn_waterfall04.jpg   	movNat   	3	waterfall 	37	waterfall04 	373	not_alive	0	moves	1	natural 	1	n	0	0    	 	0.0	0	186.688314600149	186.78818530007302	0.0998706999234855
150239	100	157	stimuli\plant\cactus\plant_cactus09.jpg          	1	2	1	plant_cactus09.jpg   	plant    	6	cactus    	4	cactus09    	48	alive    	1	still	0	natural 	1	n	0	0    	 	0.0	0	186.83829169999802	186.938180200057	0.0998885000590235
150389	100	158	stimuli\nonmovArt\bench\nma_bench10.jpg          	1	2	1	nma_bench10.jpg      	nonmovArt	4	bench     	1	bench10     	19	not_alive	0	still	0	artefact	0	n	0	0    	 	0.0	0	186.98826460004798	187.088189400034	0.0999247999861836
150539	100	159	stimuli\movArt\bus\ma_bus07.jpg                  	1	2	1	ma_bus07.jpg         	movArt   	2	bus       	3	bus07       	36	not_alive	0	moves	1	artefact	0	n	0	0    	 	0.0	0	187.13828610000198	187.23818959994202	0.0999034999404102
158189	100	160	stimuli\plant\flower\plant_flower05.jpg          	1	3	1	plant_flower05.jpg   	plant    	6	flower    	16	flower05    	164	alive    	1	still	0	natural 	1	n	0	0    	 	0.0	0	194.788221700117	194.88811430009102	0.0998925999738276
158339	100	161	stimuli\animals2\whale\animal_whale04.jpg        	1	3	1	animal_whale04.jpg   	animals2 	1	whale     	39	whale04     	393	alive    	1	moves	1	natural 	1	n	0	0    	 	0.0	0	194.938188600121	195.038111499976	0.0999228998553007
158489	100	162	stimuli\movNat\hotspring\mn_hotspring05.jpg      	1	3	1	mn_hotspring05.jpg   	movNat   	3	hotspring 	21	hotspring05 	214	not_alive	0	moves	1	natural 	1	n	0	0    	 	0.0	0	195.088208799949	195.188100100029	0.09989130008034401
158639	100	163	stimuli\movArt\train\ma_train02.jpg              	1	3	1	ma_train02.jpg       	movArt   	2	train     	34	train02     	341	not_alive	0	moves	1	artefact	0	n	0	0    	 	0.0	0	195.238210200099	195.338102299953	0.09989209985360499
158789	100	164	stimuli\movArt\train\ma_train09.jpg              	1	3	1	ma_train09.jpg       	movArt   	2	train     	34	train09     	348	not_alive	0	moves	1	artefact	0	n	0	0    	 	0.0	0	195.388204300078	195.48809659993302	0.0998922998551279
158939	100	165	stimuli\plant\vine\plant_vine09.jpg              	1	3	1	plant_vine09.jpg     	plant    	6	vine      	36	vine09      	368	alive    	1	still	0	natural 	1	n	0	0    	 	0.0	0	195.538191700121	195.638096699957	0.0999049998354166
159089	100	166	stimuli\animals2\whale\animal_whale04.jpg        	1	3	1	animal_whale04.jpg   	animals2 	1	whale     	39	whale04     	393	alive    	1	moves	1	natural 	1	n	0	0    	 	0.0	0	195.688203500118	195.788105800049	0.0999022999312728
159239	100	167	stimuli\movArt\helicopter\ma_helicopter05.jpg    	1	3	1	ma_helicopter05.jpg  	movArt   	2	helicopter	19	helicopter05	194	not_alive	0	moves	1	artefact	0	n	0	0    	 	0.0	0	195.838207999943	195.938096099999	0.0998881000559777
159389	100	168	stimuli\movNat\waves\mn_waves09.jpg              	1	3	1	mn_waves09.jpg       	movNat   	3	waves     	38	waves09     	388	not_alive	0	moves	1	natural 	1	n	0	0    	 	0.0	0	195.98818710003997	196.088095700135	0.0999086000956595
159539	100	169	stimuli\nonmovNat\crystal\nmn_crystal03.jpg      	1	3	1	nmn_crystal03.jpg    	nonmovNat	5	crystal   	10	crystal03   	102	not_alive	0	still	0	natural 	1	n	0	0    	 	0.0	0	196.13825380010502	196.238192799967	0.0999389998614788
159689	100	170	stimuli\movNat\river\mn_river04.jpg              	1	3	1	mn_river04.jpg       	movNat   	3	river     	29	river04     	293	not_alive	0	moves	1	natural 	1	n	0	0    	 	0.0	0	196.288269600132	196.388097299961	0.0998276998288929
159839	100	171	stimuli\nonmovNat\cliff\nmn_cliff04.jpg          	1	3	1	nmn_cliff04.jpg      	nonmovNat	5	cliff     	7	cliff04     	73	not_alive	0	still	0	natural 	1	n	0	0    	 	0.0	0	196.43817980005403	196.53809000016201	0.0999102001078426
159989	100	172	stimuli\animals\eagle\animal_eagle07.jpg         	1	3	1	animal_eagle07.jpg   	animals  	0	eagle     	13	eagle07     	136	alive    	1	moves	1	natural 	1	n	0	0    	 	0.0	0	196.588175100042	196.68809220008598	0.0999171000439673
160139	100	173	stimuli\nonmovNat\sand\nmn_sand06.jpg            	1	3	1	nmn_sand06.jpg       	nonmovNat	5	sand      	31	sand06      	315	not_alive	0	still	0	natural 	1	n	0	0    	 	0.0	0	196.738198400009	196.838092199992	0.09989379998296499
160289	100	174	stimuli\movNat\hotspring\mn_hotspring02.jpg      	1	3	1	mn_hotspring02.jpg   	movNat   	3	hotspring 	21	hotspring02 	211	not_alive	0	moves	1	natural 	1	n	0	0    	 	0.0	0	196.888199700043	196.988091100007	0.0998913999646902
160439	100	175	stimuli\movArt\helicopter\ma_helicopter06.jpg    	1	3	1	ma_helicopter06.jpg  	movArt   	2	helicopter	19	helicopter06	195	not_alive	0	moves	1	artefact	0	n	0	0    	 	0.0	0	197.03818639996499	197.138081599958	0.0998951999936252
160589	100	176	stimuli\animals2\bee\animal_bee05.jpg            	1	3	1	animal_bee05.jpg     	animals2 	1	bee       	0	bee05       	4	alive    	1	moves	1	natural 	1	n	0	0    	 	0.0	0	197.188183800084	197.288077600067	0.09989379998296499
160739	100	177	stimuli\movArt\car\ma_car02.jpg                  	1	3	1	ma_car02.jpg         	movArt   	2	car       	5	car02       	51	not_alive	0	moves	1	artefact	0	n	0	0    	 	0.0	0	197.33818030008098	197.438073700061	0.0998933999799192
160889	100	178	stimuli\plant\cactus\plant_cactus06.jpg          	1	3	1	plant_cactus06.jpg   	plant    	6	cactus    	4	cactus06    	45	alive    	1	still	0	natural 	1	n	0	0    	 	0.0	0	197.488164399983	197.588085300056	0.0999209000729024
161039	100	179	stimuli\movNat\waves\mn_waves09.jpg              	1	3	1	mn_waves09.jpg       	movNat   	3	waves     	38	waves09     	388	not_alive	0	moves	1	natural 	1	n	0	0    	 	0.0	0	197.63817659998298	197.738071199972	0.0998945999890566
161189	100	180	stimuli\animals2\lemur\animal_lemur02.jpg        	1	3	1	animal_lemur02.jpg   	animals2 	1	lemur     	23	lemur02     	231	alive    	1	moves	1	natural 	1	n	0	0    	 	0.0	0	197.78816869994597	197.888089000015	0.0999203000683337
161339	100	181	stimuli\animals\dog\animal_dog08.jpg             	1	3	1	animal_dog08.jpg     	animals  	0	dog       	11	dog08       	117	alive    	1	moves	1	natural 	1	n	0	0    	 	0.0	0	197.938144900138	198.03806219995	0.0999172998126596
161489	100	182	stimuli\plant\grass\plant_grass08.jpg            	1	3	1	plant_grass08.jpg    	plant    	6	grass     	17	grass08     	177	alive    	1	still	0	natural 	1	n	0	0    	 	0.0	0	198.08820290001998	198.188069100026	0.0998662000056356
161639	100	183	stimuli\movArt\boat\ma_boat06.jpg                	1	3	1	ma_boat06.jpg        	movArt   	2	boat      	2	boat06      	25	not_alive	0	moves	1	artefact	0	n	0	0    	 	0.0	0	198.238175899954	198.338082600152	0.0999067001976072
161789	100	184	stimuli\nonmovArt\lock\nma_lock08.jpg            	1	3	1	nma_lock08.jpg       	nonmovArt	4	lock      	24	lock08      	247	not_alive	0	still	0	artefact	0	n	0	0    	 	0.0	0	198.38816060009398	198.488077700138	0.0999171000439673
161939	100	185	stimuli\plant\flower\plant_flower07.jpg          	1	3	1	plant_flower07.jpg   	plant    	6	flower    	16	flower07    	166	alive    	1	still	0	natural 	1	n	1	0    	 	0.0	0	198.538131900132	198.63806389994	0.0999319998081773
162089	100	186	stimuli\plant\grass\plant_grass04.jpg            	1	3	1	plant_grass04.jpg    	plant    	6	grass     	17	grass04     	173	alive    	1	still	0	natural 	1	n	0	0    	 	0.0	0	198.688163100043	198.78806719998798	0.0999040999449789
162239	100	187	stimuli\nonmovNat\rock\nmn_rock10.jpg            	1	3	1	nmn_rock10.jpg       	nonmovNat	5	rock      	30	rock10      	309	not_alive	0	still	0	natural 	1	n	0	1    	f	0.392021299805492	1	198.83816969999998	198.938071600162	0.0999019001610577
162389	100	188	stimuli\nonmovArt\clothespeg\nma_clothespeg08.jpg	1	3	1	nma_clothespeg08.jpg 	nonmovArt	4	clothespeg	8	clothespeg08	87	not_alive	0	still	0	artefact	0	n	1	0    	 	0.0	0	198.98816770012502	199.088055599947	0.0998878998216241
162539	100	189	stimuli\plant2\clover\plant_clover06.jpg         	1	3	1	plant_clover06.jpg   	plant2   	7	clover    	9	clover06    	95	alive    	1	still	0	natural 	1	n	0	0    	 	0.0	0	199.13815160002602	199.238062900025	0.0999112999998033
162689	100	190	stimuli\nonmovArt\headphones\nma_headphones02.jpg	1	3	1	nma_headphones02.jpg 	nonmovArt	4	headphones	18	headphones02	181	not_alive	0	still	0	artefact	0	n	0	0    	 	0.0	0	199.28816090012	199.38806440006002	0.0999034999404102
162839	100	191	stimuli\animals\eagle\animal_eagle10.jpg         	1	3	1	animal_eagle10.jpg   	animals  	0	eagle     	13	eagle10     	139	alive    	1	moves	1	natural 	1	n	0	1    	f	0.54207789991051	1	199.438172599999	199.53806650009898	0.0998939001001417
162989	100	192	stimuli\nonmovNat\shell\nmn_shell06.jpg          	1	3	1	nmn_shell06.jpg      	nonmovNat	5	shell     	32	shell06     	325	not_alive	0	still	0	natural 	1	n	0	0    	 	0.0	0	199.588170200121	199.68812469998403	0.0999544998630881
163139	100	193	stimuli\movArt\bus\ma_bus10.jpg                  	1	3	1	ma_bus10.jpg         	movArt   	2	bus       	3	bus10       	39	not_alive	0	moves	1	artefact	0	n	0	0    	 	0.0	0	199.738308000145	199.838144100038	0.0998360998928546
163289	100	194	stimuli\nonmovArt\lock\nma_lock02.jpg            	1	3	1	nma_lock02.jpg       	nonmovArt	4	lock      	24	lock02      	241	not_alive	0	still	0	artefact	0	n	0	0    	 	0.0	0	199.88815740006999	199.988047200022	0.09988979995250698
163439	100	195	stimuli\animals2\tiger\animal_tiger08.jpg        	1	3	1	animal_tiger08.jpg   	animals2 	1	tiger     	33	tiger08     	337	alive    	1	moves	1	natural 	1	n	0	0    	 	0.0	0	200.038138899952	200.13805510010602	0.0999162001535296
163589	100	196	stimuli\plant2\clover\plant_clover08.jpg         	1	3	1	plant_clover08.jpg   	plant2   	7	clover    	9	clover08    	97	alive    	1	still	0	natural 	1	n	1	0    	 	0.0	0	200.18816160014802	200.287914999994	0.0997533998452127
163739	100	197	stimuli\plant2\lemontree\plant_lemontree05.jpg   	1	3	1	plant_lemontree05.jpg	plant2   	7	lemontree 	22	lemontree05 	224	alive    	1	still	0	natural 	1	n	0	0    	 	0.0	0	200.338175700046	200.43806920014302	0.0998935000970959
163889	100	198	stimuli\plant2\fern\plant_fern02.jpg             	1	3	1	plant_fern02.jpg     	plant2   	7	fern      	14	fern02      	141	alive    	1	still	0	natural 	1	n	0	1    	f	0.40011930000037	1	200.488199100131	200.58807900012502	0.0998798999935388
164039	100	199	stimuli\movNat\river\mn_river01.jpg              	1	3	1	mn_river01.jpg       	movNat   	3	river     	29	river01     	290	not_alive	0	moves	1	natural 	1	n	0	0    	 	0.0	0	200.638143999968	200.73805829999	0.0999143000226467
164189	100	200	stimuli\nonmovArt\mug\nma_mug10.jpg              	1	3	1	nma_mug10.jpg        	nonmovArt	4	mug       	26	mug10       	269	not_alive	0	still	0	artefact	0	n	0	0    	 	0.0	0	200.78819010010898	200.88808890013001	0.0998988000210374
164339	100	201	stimuli\nonmovArt\clothespeg\nma_clothespeg02.jpg	1	3	1	nma_clothespeg02.jpg 	nonmovArt	4	clothespeg	8	clothespeg02	81	not_alive	0	still	0	artefact	0	n	0	0    	 	0.0	0	200.93816670007098	201.038089900045	0.0999231999740004
164489	100	202	stimuli\plant2\moss\plant_moss08.jpg             	1	3	1	plant_moss08.jpg     	plant2   	7	moss      	25	moss08      	257	alive    	1	still	0	natural 	1	n	0	0    	 	0.0	0	201.088176199934	201.18806540011397	0.0998892001807689
164639	100	203	stimuli\animals2\bee\animal_bee02.jpg            	1	3	1	animal_bee02.jpg     	animals2 	1	bee       	0	bee02       	1	alive    	1	moves	1	natural 	1	n	0	0    	 	0.0	0	201.238191199955	201.33805859996897	0.09986740001477301
164789	100	204	stimuli\nonmovNat\rock\nmn_rock02.jpg            	1	3	1	nmn_rock02.jpg       	nonmovNat	5	rock      	30	rock02      	301	not_alive	0	still	0	natural 	1	n	0	0    	 	0.0	0	201.38817599997898	201.488000100013	0.0998241000343114
164939	100	205	stimuli\nonmovArt\headphones\nma_headphones09.jpg	1	3	1	nma_headphones09.jpg 	nonmovArt	4	headphones	18	headphones09	188	not_alive	0	still	0	artefact	0	n	0	0    	 	0.0	0	201.538232299965	201.638236199971	0.10000390000641302
165089	100	206	stimuli\plant2\lemontree\plant_lemontree03.jpg   	1	3	1	plant_lemontree03.jpg	plant2   	7	lemontree 	22	lemontree03 	222	alive    	1	still	0	natural 	1	n	0	0    	 	0.0	0	201.68819080013802	201.788050400093	0.0998595999553799
165239	100	207	stimuli\nonmovNat\shell\nmn_shell10.jpg          	1	3	1	nmn_shell10.jpg      	nonmovNat	5	shell     	32	shell10     	329	not_alive	0	still	0	natural 	1	n	0	0    	 	0.0	0	201.838137000101	201.938044799957	0.0999077998567372
165389	100	208	stimuli\nonmovArt\bench\nma_bench05.jpg          	1	3	1	nma_bench05.jpg      	nonmovArt	4	bench     	1	bench05     	14	not_alive	0	still	0	artefact	0	n	1	0    	 	0.0	0	201.988142000046	202.08803860005	0.0998966000042855
165539	100	209	stimuli\plant\tree\plant_tree06.jpg              	1	3	1	plant_tree06.jpg     	plant    	6	tree      	35	tree06      	355	alive    	1	still	0	natural 	1	n	0	0    	 	0.0	0	202.138167400146	202.238040199969	0.0998727998230606
165689	100	210	stimuli\animals\dolphin\animal_dolphin04.jpg     	1	3	1	animal_dolphin04.jpg 	animals  	0	dolphin   	12	dolphin04   	123	alive    	1	moves	1	natural 	1	n	0	1    	f	0.391968399984762	1	202.288133300142	202.38805119996002	0.0999178998172283
165839	100	211	stimuli\movArt\car\ma_car05.jpg                  	1	3	1	ma_car05.jpg         	movArt   	2	car       	5	car05       	54	not_alive	0	moves	1	artefact	0	n	0	0    	 	0.0	0	202.438148300163	202.53806170006303	0.0999133998993784
165989	100	212	stimuli\plant2\moss\plant_moss01.jpg             	1	3	1	plant_moss01.jpg     	plant2   	7	moss      	25	moss01      	250	alive    	1	still	0	natural 	1	n	0	0    	 	0.0	0	202.588136400096	202.6880351	0.0998986999038606
166139	100	213	stimuli\nonmovNat\rock\nmn_rock03.jpg            	1	3	1	nmn_rock03.jpg       	nonmovNat	5	rock      	30	rock03      	302	not_alive	0	still	0	natural 	1	n	0	0    	 	0.0	0	202.738154500024	202.838045699988	0.0998911999631673
166289	100	214	stimuli\animals2\tiger\animal_tiger09.jpg        	1	3	1	animal_tiger09.jpg   	animals2 	1	tiger     	33	tiger09     	338	alive    	1	moves	1	natural 	1	n	0	0    	 	0.0	0	202.88816630002103	202.98803599993698	0.09986969991587101
166439	100	215	stimuli\animals2\bee\animal_bee09.jpg            	1	3	1	animal_bee09.jpg     	animals2 	1	bee       	0	bee09       	8	alive    	1	moves	1	natural 	1	n	0	0    	 	0.0	0	203.03812899999298	203.138062700164	0.0999337001703679
166589	100	216	stimuli\plant\flower\plant_flower05.jpg          	1	3	1	plant_flower05.jpg   	plant    	6	flower    	16	flower05    	164	alive    	1	still	0	natural 	1	n	0	0    	 	0.0	0	203.188188300002	203.288156500086	0.099968200083822
166739	100	217	stimuli\animals\cat\animal_cat05.jpg             	1	3	1	animal_cat05.jpg     	animals  	0	cat       	6	cat05       	64	alive    	1	moves	1	natural 	1	n	0	0    	 	0.0	0	203.33833210007302	203.438138399972	0.0998062998987734
166889	100	218	stimuli\nonmovNat\crystal\nmn_crystal03.jpg      	1	3	1	nmn_crystal03.jpg    	nonmovNat	5	crystal   	10	crystal03   	102	not_alive	0	still	0	natural 	1	n	0	0    	 	0.0	0	203.48813710012502	203.588047900004	0.0999107998795807
167039	100	219	stimuli\movNat\waterfall\mn_waterfall08.jpg      	1	3	1	mn_waterfall08.jpg   	movNat   	3	waterfall 	37	waterfall08 	377	not_alive	0	moves	1	natural 	1	n	0	0    	 	0.0	0	203.63814719999198	203.73802940012	0.0998822001274675
167189	100	220	stimuli\movNat\waves\mn_waves10.jpg              	1	3	1	mn_waves10.jpg       	movNat   	3	waves     	38	waves10     	389	not_alive	0	moves	1	natural 	1	n	0	0    	 	0.0	0	203.788155500078	203.88803320005502	0.0998776999767869
167339	100	221	stimuli\movNat\fire\mn_fire03.jpg                	1	3	1	mn_fire03.jpg        	movNat   	3	fire      	15	fire03      	152	not_alive	0	moves	1	natural 	1	n	0	0    	 	0.0	0	203.938138500089	204.038020800101	0.0998823000118136
167489	100	222	stimuli\animals2\whale\animal_whale05.jpg        	1	3	1	animal_whale05.jpg   	animals2 	1	whale     	39	whale05     	394	alive    	1	moves	1	natural 	1	n	0	0    	 	0.0	0	204.088122100104	204.188026699936	0.0999045998323708
167639	100	223	stimuli\animals\dolphin\animal_dolphin07.jpg     	1	3	1	animal_dolphin07.jpg 	animals  	0	dolphin   	12	dolphin07   	126	alive    	1	moves	1	natural 	1	n	0	0    	 	0.0	0	204.238121500006	204.338022800162	0.099901300156489
167789	100	224	stimuli\nonmovNat\sand\nmn_sand01.jpg            	1	3	1	nmn_sand01.jpg       	nonmovNat	5	sand      	31	sand01      	310	not_alive	0	still	0	natural 	1	n	0	0    	 	0.0	0	204.38812589994598	204.488038900075	0.0999130001291632
167939	100	225	stimuli\animals\eagle\animal_eagle06.jpg         	1	3	1	animal_eagle06.jpg   	animals  	0	eagle     	13	eagle06     	135	alive    	1	moves	1	natural 	1	n	0	0    	 	0.0	0	204.538150000153	204.638028200017	0.0998781998641789
168089	100	226	stimuli\movNat\hotspring\mn_hotspring10.jpg      	1	3	1	mn_hotspring10.jpg   	movNat   	3	hotspring 	21	hotspring10 	219	not_alive	0	moves	1	natural 	1	n	0	0    	 	0.0	0	204.68813810008598	204.78805880015702	0.0999207000713795
168239	100	227	stimuli\movArt\train\ma_train08.jpg              	1	3	1	ma_train08.jpg       	movArt   	2	train     	34	train08     	347	not_alive	0	moves	1	artefact	0	n	0	0    	 	0.0	0	204.838122100104	204.938035700004	0.0999135999009013
168389	100	228	stimuli\plant2\fern\plant_fern10.jpg             	1	3	1	plant_fern10.jpg     	plant2   	7	fern      	14	fern10      	149	alive    	1	still	0	natural 	1	n	0	0    	 	0.0	0	204.988128399942	205.08810880011902	0.0999804001767188
168539	100	229	stimuli\animals\cat\animal_cat08.jpg             	1	3	1	animal_cat08.jpg     	animals  	0	cat       	6	cat08       	67	alive    	1	moves	1	natural 	1	n	0	0    	 	0.0	0	205.138307300163	205.238023000071	0.0997156999073922
168689	100	230	stimuli\plant2\moss\plant_moss05.jpg             	1	3	1	plant_moss05.jpg     	plant2   	7	moss      	25	moss05      	254	alive    	1	still	0	natural 	1	n	0	0    	 	0.0	0	205.288108299952	205.38801590004	0.099907600088045
168839	100	231	stimuli\movArt\car\ma_car10.jpg                  	1	3	1	ma_car10.jpg         	movArt   	2	car       	5	car10       	59	not_alive	0	moves	1	artefact	0	n	0	0    	 	0.0	0	205.43814410013098	205.538014800055	0.0998706999234855
168989	100	232	stimuli\movArt\boat\ma_boat07.jpg                	1	3	1	ma_boat07.jpg        	movArt   	2	boat      	2	boat07      	26	not_alive	0	moves	1	artefact	0	n	0	0    	 	0.0	0	205.58813649998	205.68801519996498	0.0998786999844014
169139	100	233	stimuli\plant2\lemontree\plant_lemontree01.jpg   	1	3	1	plant_lemontree01.jpg	plant2   	7	lemontree 	22	lemontree01 	220	alive    	1	still	0	natural 	1	n	0	0    	 	0.0	0	205.738110900158	205.83800130011502	0.0998903999570757
169289	100	234	stimuli\animals2\tiger\animal_tiger08.jpg        	1	3	1	animal_tiger08.jpg   	animals2 	1	tiger     	33	tiger08     	337	alive    	1	moves	1	natural 	1	n	0	0    	 	0.0	0	205.88813169999	205.98803679994302	0.0999050999525934
169439	100	235	stimuli\animals\horse\animal_horse07.jpg         	1	3	1	animal_horse07.jpg   	animals  	0	horse     	20	horse07     	206	alive    	1	moves	1	natural 	1	n	0	0    	 	0.0	0	206.038137699943	206.13800769997798	0.0998700000345707
169589	100	236	stimuli\movArt\boat\ma_boat04.jpg                	1	3	1	ma_boat04.jpg        	movArt   	2	boat      	2	boat04      	23	not_alive	0	moves	1	artefact	0	n	0	0    	 	0.0	0	206.188119600061	206.28801429993499	0.0998946998734027
169739	100	237	stimuli\nonmovArt\mug\nma_mug09.jpg              	1	3	1	nma_mug09.jpg        	nonmovArt	4	mug       	26	mug09       	268	not_alive	0	still	0	artefact	0	n	0	0    	 	0.0	0	206.338116999948	206.43722119997298	0.0991042000241577
169888	100	238	stimuli\nonmovArt\clothespeg\nma_clothespeg08.jpg	1	3	1	nma_clothespeg08.jpg 	nonmovArt	4	clothespeg	8	clothespeg08	87	not_alive	0	still	0	artefact	0	n	0	0    	 	0.0	0	206.487222900148	206.587213600054	0.0999906999059021
170038	100	239	stimuli\nonmovArt\headphones\nma_headphones09.jpg	1	3	1	nma_headphones09.jpg 	nonmovArt	4	headphones	18	headphones09	188	not_alive	0	still	0	artefact	0	n	0	0    	 	0.0	0	206.637219300028	206.737210700056	0.0999914000276476
175838	100	240	stimuli\animals\cat\animal_cat03.jpg             	1	4	1	animal_cat03.jpg     	animals  	0	cat       	6	cat03       	62	alive    	1	moves	1	natural 	1	n	0	0    	 	0.0	0	212.43719730014	212.537170100026	0.099972799886018
175988	100	241	stimuli\nonmovArt\bench\nma_bench06.jpg          	1	4	1	nma_bench06.jpg      	nonmovArt	4	bench     	1	bench06     	15	not_alive	0	still	0	artefact	0	n	0	0    	 	0.0	0	212.587179100141	212.687168600038	0.0999894998967647
176138	100	242	stimuli\movNat\waterfall\mn_waterfall01.jpg      	1	4	1	mn_waterfall01.jpg   	movNat   	3	waterfall 	37	waterfall01 	370	not_alive	0	moves	1	natural 	1	n	0	0    	 	0.0	0	212.737179300049	212.83716630004298	0.0999869999941438
176288	100	243	stimuli\movArt\boat\ma_boat09.jpg                	1	4	1	ma_boat09.jpg        	movArt   	2	boat      	2	boat09      	28	not_alive	0	moves	1	artefact	0	n	0	0    	 	0.0	0	212.88717849994998	212.98716800008	0.0999895001295954
176438	100	244	stimuli\movNat\waves\mn_waves01.jpg              	1	4	1	mn_waves01.jpg       	movNat   	3	waves     	38	waves01     	380	not_alive	0	moves	1	natural 	1	n	0	0    	 	0.0	0	213.037176199956	213.13716839999	0.0999922000337392
176588	100	245	stimuli\animals2\lemur\animal_lemur09.jpg        	1	4	1	animal_lemur09.jpg   	animals2 	1	lemur     	23	lemur09     	238	alive    	1	moves	1	natural 	1	n	0	0    	 	0.0	0	213.187175499974	213.287170200143	0.0999947001691907
176738	100	246	stimuli\animals\eagle\animal_eagle05.jpg         	1	4	1	animal_eagle05.jpg   	animals  	0	eagle     	13	eagle05     	134	alive    	1	moves	1	natural 	1	n	0	0    	 	0.0	0	213.33717319998001	213.43718739994802	0.10001419996842699
176888	100	247	stimuli\movArt\train\ma_train01.jpg              	1	4	1	ma_train01.jpg       	movArt   	2	train     	34	train01     	340	not_alive	0	moves	1	artefact	0	n	0	0    	 	0.0	0	213.48717860016004	213.587163500022	0.09998489986173802
177038	100	248	stimuli\nonmovArt\headphones\nma_headphones10.jpg	1	4	1	nma_headphones10.jpg 	nonmovArt	4	headphones	18	headphones10	189	not_alive	0	still	0	artefact	0	n	0	0    	 	0.0	0	213.63717030012	213.73715670011	0.0999863999895751
177188	100	249	stimuli\animals\dog\animal_dog05.jpg             	1	4	1	animal_dog05.jpg     	animals  	0	dog       	11	dog05       	114	alive    	1	moves	1	natural 	1	n	0	0    	 	0.0	0	213.787171600154	213.88715840014598	0.0999867999926209
177338	100	250	stimuli\animals2\lemur\animal_lemur02.jpg        	1	4	1	animal_lemur02.jpg   	animals2 	1	lemur     	23	lemur02     	231	alive    	1	moves	1	natural 	1	n	0	0    	 	0.0	0	213.937165500131	214.03716649999802	0.100000999867916
177488	100	251	stimuli\plant2\fern\plant_fern09.jpg             	1	4	1	plant_fern09.jpg     	plant2   	7	fern      	14	fern09      	148	alive    	1	still	0	natural 	1	n	0	0    	 	0.0	0	214.087170500075	214.18715839996003	0.0999878998845815
177638	100	252	stimuli\animals\cat\animal_cat08.jpg             	1	4	1	animal_cat08.jpg     	animals  	0	cat       	6	cat08       	67	alive    	1	moves	1	natural 	1	n	0	0    	 	0.0	0	214.237165899947	214.33715769997798	0.0999918000306934
177788	100	253	stimuli\animals\horse\animal_horse06.jpg         	1	4	1	animal_horse06.jpg   	animals  	0	horse     	20	horse06     	205	alive    	1	moves	1	natural 	1	n	0	0    	 	0.0	0	214.38716379995498	214.48715350008598	0.0999897001311183
177938	100	254	stimuli\animals\eagle\animal_eagle04.jpg         	1	4	1	animal_eagle04.jpg   	animals  	0	eagle     	13	eagle04     	133	alive    	1	moves	1	natural 	1	n	0	0    	 	0.0	0	214.537163800094	214.637150299968	0.0999864998739212
178088	100	255	stimuli\movArt\bus\ma_bus03.jpg                  	1	4	1	ma_bus03.jpg         	movArt   	2	bus       	3	bus03       	32	not_alive	0	moves	1	artefact	0	n	0	0    	 	0.0	0	214.68716319999697	214.78715180000302	0.09998860000632699
178238	100	256	stimuli\movArt\boat\ma_boat05.jpg                	1	4	1	ma_boat05.jpg        	movArt   	2	boat      	2	boat05      	24	not_alive	0	moves	1	artefact	0	n	0	0    	 	0.0	0	214.83715960010898	214.937151700025	0.0999920999165624
178388	100	257	stimuli\movNat\waterfall\mn_waterfall03.jpg      	1	4	1	mn_waterfall03.jpg   	movNat   	3	waterfall 	37	waterfall03 	372	not_alive	0	moves	1	natural 	1	n	1	0    	 	0.0	0	214.98715980001703	215.087146100122	0.099986300105229
178538	100	258	stimuli\movArt\car\ma_car01.jpg                  	1	4	1	ma_car01.jpg         	movArt   	2	car       	5	car01       	50	not_alive	0	moves	1	artefact	0	n	0	0    	 	0.0	0	215.137159400154	215.237169299973	0.10000989981927
178688	100	259	stimuli\plant2\lemontree\plant_lemontree10.jpg   	1	4	1	plant_lemontree10.jpg	plant2   	7	lemontree 	22	lemontree10 	229	alive    	1	still	0	natural 	1	n	0	1    	f	0.391990100033581	1	215.287163600093	215.387145500164	0.0999819000717252
178838	100	260	stimuli\movNat\fire\mn_fire07.jpg                	1	4	1	mn_fire07.jpg        	movNat   	3	fire      	15	fire07      	156	not_alive	0	moves	1	natural 	1	n	0	0    	 	0.0	0	215.43715420016102	215.53714450006402	0.0999902999028563
178988	100	261	stimuli\nonmovArt\headphones\nma_headphones07.jpg	1	4	1	nma_headphones07.jpg 	nonmovArt	4	headphones	18	headphones07	186	not_alive	0	still	0	artefact	0	n	0	0    	 	0.0	0	215.58714980003398	215.68714189995097	0.0999920999165624
179138	100	262	stimuli\movNat\hotspring\mn_hotspring10.jpg      	1	4	1	mn_hotspring10.jpg   	movNat   	3	hotspring 	21	hotspring10 	219	not_alive	0	moves	1	natural 	1	n	0	0    	 	0.0	0	215.737151399953	215.837160400115	0.10000900016166302
179288	100	263	stimuli\animals2\tiger\animal_tiger08.jpg        	1	4	1	animal_tiger08.jpg   	animals2 	1	tiger     	33	tiger08     	337	alive    	1	moves	1	natural 	1	n	1	0    	 	0.0	0	215.88714920007598	215.98714069998798	0.0999914999119937
179438	100	264	stimuli\plant\flower\plant_flower03.jpg          	1	4	1	plant_flower03.jpg   	plant    	6	flower    	16	flower03    	162	alive    	1	still	0	natural 	1	n	0	0    	 	0.0	0	216.037150399992	216.137137900107	0.0999875001143664
179588	100	265	stimuli\animals2\pigeon\animal_pigeon05.jpg      	1	4	1	animal_pigeon05.jpg  	animals2 	1	pigeon    	28	pigeon05    	284	alive    	1	moves	1	natural 	1	n	0	1    	f	0.39216109993867604	1	216.18714820011502	216.28713720012502	0.0999890000093728
179738	100	266	stimuli\nonmovArt\lock\nma_lock09.jpg            	1	4	1	nma_lock09.jpg       	nonmovArt	4	lock      	24	lock09      	248	not_alive	0	still	0	artefact	0	n	0	0    	 	0.0	0	216.337146500126	216.437135300133	0.0999888000078499
179888	100	267	stimuli\animals\cat\animal_cat06.jpg             	1	4	1	animal_cat06.jpg     	animals  	0	cat       	6	cat06       	65	alive    	1	moves	1	natural 	1	n	0	0    	 	0.0	0	216.487146000145	216.58713280013802	0.0999867999926209
180038	100	268	stimuli\plant\vine\plant_vine06.jpg              	1	4	1	plant_vine06.jpg     	plant    	6	vine      	36	vine06      	365	alive    	1	still	0	natural 	1	n	0	0    	 	0.0	0	216.63714440003997	216.73713170015301	0.0999873001128435
180188	100	269	stimuli\animals\dog\animal_dog03.jpg             	1	4	1	animal_dog03.jpg     	animals  	0	dog       	11	dog03       	112	alive    	1	moves	1	natural 	1	n	0	0    	 	0.0	0	216.787143399939	216.887132799951	0.0999894000124186
180338	100	270	stimuli\plant2\moss\plant_moss04.jpg             	1	4	1	plant_moss04.jpg     	plant2   	7	moss      	25	moss04      	253	alive    	1	still	0	natural 	1	n	0	0    	 	0.0	0	216.937143299961	217.037138900021	0.0999956000596284
180488	100	271	stimuli\nonmovNat\crystal\nmn_crystal04.jpg      	1	4	1	nmn_crystal04.jpg    	nonmovNat	5	crystal   	10	crystal04   	103	not_alive	0	still	0	natural 	1	n	0	0    	 	0.0	0	217.087139900075	217.187130300095	0.0999904000200331
180638	100	272	stimuli\nonmovNat\sand\nmn_sand04.jpg            	1	4	1	nmn_sand04.jpg       	nonmovNat	5	sand      	31	sand04      	313	not_alive	0	still	0	natural 	1	n	0	0    	 	0.0	0	217.237138099968	217.337128099985	0.0999900000169873
180788	100	273	stimuli\nonmovArt\mug\nma_mug03.jpg              	1	4	1	nma_mug03.jpg        	nonmovArt	4	mug       	26	mug03       	262	not_alive	0	still	0	artefact	0	n	0	0    	 	0.0	0	217.387135100085	217.48712750012	0.0999924000352621
180938	100	274	stimuli\plant\vine\plant_vine03.jpg              	1	4	1	plant_vine03.jpg     	plant    	6	vine      	36	vine03      	362	alive    	1	still	0	natural 	1	n	0	0    	 	0.0	0	217.53714270005	217.637124800123	0.0999821000732481
181088	100	275	stimuli\movArt\helicopter\ma_helicopter06.jpg    	1	4	1	ma_helicopter06.jpg  	movArt   	2	helicopter	19	helicopter06	195	not_alive	0	moves	1	artefact	0	n	1	0    	 	0.0	0	217.68713580002103	217.787933200132	0.10079740011133198
181239	100	276	stimuli\plant\cactus\plant_cactus06.jpg          	1	4	1	plant_cactus06.jpg   	plant    	6	cactus    	4	cactus06    	45	alive    	1	still	0	natural 	1	n	0	0    	 	0.0	0	217.83800310012901	217.93789219996003	0.0998890998307615
181389	100	277	stimuli\animals\horse\animal_horse01.jpg         	1	4	1	animal_horse01.jpg   	animals  	0	horse     	20	horse01     	200	alive    	1	moves	1	natural 	1	n	0	1    	f	0.3928461999166761	1	217.98799950000802	218.087898500031	0.0998990000225603
181539	100	278	stimuli\nonmovNat\crystal\nmn_crystal06.jpg      	1	4	1	nmn_crystal06.jpg    	nonmovNat	5	crystal   	10	crystal06   	105	not_alive	0	still	0	natural 	1	n	0	0    	 	0.0	0	218.137973800069	218.237881900044	0.0999080999754369
181689	100	279	stimuli\animals2\lemur\animal_lemur08.jpg        	1	4	1	animal_lemur08.jpg   	animals2 	1	lemur     	23	lemur08     	237	alive    	1	moves	1	natural 	1	n	0	0    	 	0.0	0	218.28798969998002	218.38790620001998	0.0999165000393986
181839	100	280	stimuli\plant\tree\plant_tree08.jpg              	1	4	1	plant_tree08.jpg     	plant    	6	tree      	35	tree08      	357	alive    	1	still	0	natural 	1	n	0	0    	 	0.0	0	218.437994200038	218.537868000101	0.0998738000635057
181989	100	281	stimuli\plant2\palmtree\plant_palmtree06.jpg     	1	4	1	plant_palmtree06.jpg 	plant2   	7	palmtree  	27	palmtree06  	275	alive    	1	still	0	natural 	1	n	0	0    	 	0.0	0	218.587969300104	218.687872600043	0.0999032999388873
182139	100	282	stimuli\animals2\whale\animal_whale10.jpg        	1	4	1	animal_whale10.jpg   	animals2 	1	whale     	39	whale10     	399	alive    	1	moves	1	natural 	1	n	0	0    	 	0.0	0	218.737976199947	218.83787650009603	0.0999003001488745
182289	100	283	stimuli\animals\eagle\animal_eagle02.jpg         	1	4	1	animal_eagle02.jpg   	animals  	0	eagle     	13	eagle02     	131	alive    	1	moves	1	natural 	1	n	0	0    	 	0.0	0	218.887977699982	218.987868499942	0.0998907999601215
182439	100	284	stimuli\plant2\palmtree\plant_palmtree02.jpg     	1	4	1	plant_palmtree02.jpg 	plant2   	7	palmtree  	27	palmtree02  	271	alive    	1	still	0	natural 	1	n	0	0    	 	0.0	0	219.037996600149	219.137868700083	0.0998720999341458
182589	100	285	stimuli\nonmovNat\shell\nmn_shell09.jpg          	1	4	1	nmn_shell09.jpg      	nonmovNat	5	shell     	32	shell09     	328	not_alive	0	still	0	natural 	1	n	0	0    	 	0.0	0	219.18798970012	219.28788019996102	0.0998904998414218
182739	100	286	stimuli\nonmovArt\mug\nma_mug01.jpg              	1	4	1	nma_mug01.jpg        	nonmovArt	4	mug       	26	mug01       	260	not_alive	0	still	0	artefact	0	n	0	0    	 	0.0	0	219.338031300111	219.437877000077	0.0998456999659538
182889	100	287	stimuli\nonmovArt\bench\nma_bench01.jpg          	1	4	1	nma_bench01.jpg      	nonmovArt	4	bench     	1	bench01     	10	not_alive	0	still	0	artefact	0	n	0	0    	 	0.0	0	219.48798110010102	219.58788800006698	0.0999068999662995
183039	100	288	stimuli\nonmovNat\rock\nmn_rock03.jpg            	1	4	1	nmn_rock03.jpg       	nonmovNat	5	rock      	30	rock03      	302	not_alive	0	still	0	natural 	1	n	0	0    	 	0.0	0	219.637977600098	219.737878100015	0.0999004999175667
183189	100	289	stimuli\movNat\fire\mn_fire06.jpg                	1	4	1	mn_fire06.jpg        	movNat   	3	fire      	15	fire06      	155	not_alive	0	moves	1	natural 	1	n	0	0    	 	0.0	0	219.78797090007	219.88786919997102	0.0998982999008148
183339	100	290	stimuli\animals2\pigeon\animal_pigeon08.jpg      	1	4	1	animal_pigeon08.jpg  	animals2 	1	pigeon    	28	pigeon08    	287	alive    	1	moves	1	natural 	1	n	0	0    	 	0.0	0	219.93796829995702	220.03788130008599	0.0999130001291632
183489	100	291	stimuli\plant2\clover\plant_clover04.jpg         	1	4	1	plant_clover04.jpg   	plant2   	7	clover    	9	clover04    	93	alive    	1	still	0	natural 	1	n	0	0    	 	0.0	0	220.087968599983	220.18787589995202	0.0999072999693453
183639	100	292	stimuli\movNat\fire\mn_fire08.jpg                	1	4	1	mn_fire08.jpg        	movNat   	3	fire      	15	fire08      	157	not_alive	0	moves	1	natural 	1	n	0	0    	 	0.0	0	220.237957400037	220.337914400036	0.0999569999985396
183789	100	293	stimuli\nonmovArt\lock\nma_lock02.jpg            	1	4	1	nma_lock02.jpg       	nonmovArt	4	lock      	24	lock02      	241	not_alive	0	still	0	artefact	0	n	0	0    	 	0.0	0	220.38799800002002	220.487901699962	0.0999036999419331
183939	100	294	stimuli\animals\dog\animal_dog08.jpg             	1	4	1	animal_dog08.jpg     	animals  	0	dog       	11	dog08       	117	alive    	1	moves	1	natural 	1	n	0	0    	 	0.0	0	220.537977400003	220.63789370004102	0.0999163000378757
184089	100	295	stimuli\movNat\waterfall\mn_waterfall10.jpg      	1	4	1	mn_waterfall10.jpg   	movNat   	3	waterfall 	37	waterfall10 	379	not_alive	0	moves	1	natural 	1	n	0	0    	 	0.0	0	220.68801579996898	220.787891500164	0.0998757001943886
184239	100	296	stimuli\movNat\hotspring\mn_hotspring03.jpg      	1	4	1	mn_hotspring03.jpg   	movNat   	3	hotspring 	21	hotspring03 	212	not_alive	0	moves	1	natural 	1	n	0	0    	 	0.0	0	220.837997900089	220.937872300157	0.0998744000680744
184389	100	297	stimuli\nonmovNat\sand\nmn_sand02.jpg            	1	4	1	nmn_sand02.jpg       	nonmovNat	5	sand      	31	sand02      	311	not_alive	0	still	0	natural 	1	n	0	0    	 	0.0	0	220.987966600107	221.08790799998698	0.0999413998797536
184539	100	298	stimuli\nonmovArt\headphones\nma_headphones07.jpg	1	4	1	nma_headphones07.jpg 	nonmovArt	4	headphones	18	headphones07	186	not_alive	0	still	0	artefact	0	n	0	0    	 	0.0	0	221.138026100118	221.23799009993698	0.0999639998190105
184689	100	299	stimuli\animals2\tiger\animal_tiger01.jpg        	1	4	1	animal_tiger01.jpg   	animals2 	1	tiger     	33	tiger01     	330	alive    	1	moves	1	natural 	1	n	0	0    	 	0.0	0	221.28801820008098	221.387898999965	0.0998807998839765
184839	100	300	stimuli\movNat\waves\mn_waves07.jpg              	1	4	1	mn_waves07.jpg       	movNat   	3	waves     	38	waves07     	386	not_alive	0	moves	1	natural 	1	n	0	0    	 	0.0	0	221.43801000015802	221.53788259997998	0.0998725998215377
184989	100	301	stimuli\movNat\waves\mn_waves01.jpg              	1	4	1	mn_waves01.jpg       	movNat   	3	waves     	38	waves01     	380	not_alive	0	moves	1	natural 	1	n	0	0    	 	0.0	0	221.587983899983	221.687862799969	0.0998788999859243
185139	100	302	stimuli\movArt\train\ma_train05.jpg              	1	4	1	ma_train05.jpg       	movArt   	2	train     	34	train05     	344	not_alive	0	moves	1	artefact	0	n	0	0    	 	0.0	0	221.73800020012996	221.83786280010798	0.0998625999782234
185289	100	303	stimuli\nonmovNat\rock\nmn_rock08.jpg            	1	4	1	nmn_rock08.jpg       	nonmovNat	5	rock      	30	rock08      	307	not_alive	0	still	0	natural 	1	n	0	0    	 	0.0	0	221.88799710012998	221.987885999959	0.0998888998292386
185439	100	304	stimuli\plant\vine\plant_vine08.jpg              	1	4	1	plant_vine08.jpg     	plant    	6	vine      	36	vine08      	367	alive    	1	still	0	natural 	1	n	0	0    	 	0.0	0	222.037969300058	222.13787079998298	0.0999014999251812
185589	100	305	stimuli\plant\grass\plant_grass02.jpg            	1	4	1	plant_grass02.jpg    	plant    	6	grass     	17	grass02     	171	alive    	1	still	0	natural 	1	n	0	0    	 	0.0	0	222.18795239995202	222.28786120005	0.0999088000971824
185739	100	306	stimuli\nonmovArt\clothespeg\nma_clothespeg06.jpg	1	4	1	nma_clothespeg06.jpg 	nonmovArt	4	clothespeg	8	clothespeg06	85	not_alive	0	still	0	artefact	0	n	0	0    	 	0.0	0	222.33796510007198	222.43785490002497	0.09988979995250698
185889	100	307	stimuli\nonmovArt\clothespeg\nma_clothespeg07.jpg	1	4	1	nma_clothespeg07.jpg 	nonmovArt	4	clothespeg	8	clothespeg07	86	not_alive	0	still	0	artefact	0	n	0	0    	 	0.0	0	222.487986300141	222.587869700044	0.0998833999037742
186039	100	308	stimuli\movNat\river\mn_river10.jpg              	1	4	1	mn_river10.jpg       	movNat   	3	river     	29	river10     	299	not_alive	0	moves	1	natural 	1	n	0	0    	 	0.0	0	222.637986900052	222.737870800076	0.0998839000239968
186189	100	309	stimuli\plant\flower\plant_flower01.jpg          	1	4	1	plant_flower01.jpg   	plant    	6	flower    	16	flower01    	160	alive    	1	still	0	natural 	1	n	0	0    	 	0.0	0	222.787980700144	222.887859800132	0.0998790999874472
186339	100	310	stimuli\movArt\car\ma_car02.jpg                  	1	4	1	ma_car02.jpg         	movArt   	2	car       	5	car02       	51	not_alive	0	moves	1	artefact	0	n	0	0    	 	0.0	0	222.93804319994499	223.037944700103	0.0999015001580119
186489	100	311	stimuli\animals2\bee\animal_bee07.jpg            	1	4	1	animal_bee07.jpg     	animals2 	1	bee       	0	bee07       	6	alive    	1	moves	1	natural 	1	n	0	0    	 	0.0	0	223.08794840006198	223.18785620015097	0.0999078000895679
186639	100	312	stimuli\plant\cactus\plant_cactus09.jpg          	1	4	1	plant_cactus09.jpg   	plant    	6	cactus    	4	cactus09    	48	alive    	1	still	0	natural 	1	n	0	0    	 	0.0	0	223.237942400156	223.33782769995702	0.0998852998018264
186789	100	313	stimuli\nonmovArt\lock\nma_lock04.jpg            	1	4	1	nma_lock04.jpg       	nonmovArt	4	lock      	24	lock04      	243	not_alive	0	still	0	artefact	0	n	0	0    	 	0.0	0	223.387989700073	223.48788970010398	0.0999000000301748
186939	100	314	stimuli\movArt\bus\ma_bus03.jpg                  	1	4	1	ma_bus03.jpg         	movArt   	2	bus       	3	bus03       	32	not_alive	0	moves	1	artefact	0	n	0	0    	 	0.0	0	223.537959899986	223.637872599997	0.0999127000104636
187089	100	315	stimuli\nonmovArt\mug\nma_mug03.jpg              	1	4	1	nma_mug03.jpg        	nonmovArt	4	mug       	26	mug03       	262	not_alive	0	still	0	artefact	0	n	0	0    	 	0.0	0	223.68796889996202	223.787850300083	0.0998814001213759
187239	100	316	stimuli\movArt\helicopter\ma_helicopter03.jpg    	1	4	1	ma_helicopter03.jpg  	movArt   	2	helicopter	19	helicopter03	192	not_alive	0	moves	1	artefact	0	n	0	0    	 	0.0	0	223.837967799976	223.937851499999	0.0998837000224739
187389	100	317	stimuli\animals\horse\animal_horse06.jpg         	1	4	1	animal_horse06.jpg   	animals  	0	horse     	20	horse06     	205	alive    	1	moves	1	natural 	1	n	0	0    	 	0.0	0	223.98793589999	224.08785450016103	0.0999186001718044
187539	100	318	stimuli\nonmovNat\shell\nmn_shell07.jpg          	1	4	1	nmn_shell07.jpg      	nonmovNat	5	shell     	32	shell07     	326	not_alive	0	still	0	natural 	1	n	0	0    	 	0.0	0	224.13796950015202	224.237864300143	0.0998947999905794
187689	100	319	stimuli\plant2\clover\plant_clover01.jpg         	1	4	1	plant_clover01.jpg   	plant2   	7	clover    	9	clover01    	90	alive    	1	still	0	natural 	1	n	0	0    	 	0.0	0	224.28797130007302	224.387843200006	0.0998718999326229
200522	100	320	stimuli\plant\tree\plant_tree03.jpg              	1	5	1	plant_tree03.jpg     	plant    	6	tree      	35	tree03      	352	alive    	1	still	0	natural 	1	n	0	0    	 	0.0	0	237.12114079995098	237.221066799946	0.099925999995321
200672	100	321	stimuli\animals2\whale\animal_whale07.jpg        	1	5	1	animal_whale07.jpg   	animals2 	1	whale     	39	whale07     	396	alive    	1	moves	1	natural 	1	n	0	0    	 	0.0	0	237.271149400156	237.37121549993802	0.10006609978154302
200822	100	322	stimuli\animals\dolphin\animal_dolphin09.jpg     	1	5	1	animal_dolphin09.jpg 	animals  	0	dolphin   	12	dolphin09   	128	alive    	1	moves	1	natural 	1	n	0	0    	 	0.0	0	237.421215200098	237.52103110007005	0.0998158999718725
200972	100	323	stimuli\movArt\train\ma_train07.jpg              	1	5	1	ma_train07.jpg       	movArt   	2	train     	34	train07     	346	not_alive	0	moves	1	artefact	0	n	0	0    	 	0.0	0	237.571124300128	237.671029899968	0.0999055998399853
201122	100	324	stimuli\nonmovArt\clothespeg\nma_clothespeg07.jpg	1	5	1	nma_clothespeg07.jpg 	nonmovArt	4	clothespeg	8	clothespeg07	86	not_alive	0	still	0	artefact	0	n	0	0    	 	0.0	0	237.721133300103	237.82102699996898	0.0998936998657882
201272	100	325	stimuli\nonmovNat\crystal\nmn_crystal09.jpg      	1	5	1	nmn_crystal09.jpg    	nonmovNat	5	crystal   	10	crystal09   	108	not_alive	0	still	0	natural 	1	n	0	0    	 	0.0	0	237.87114619999198	237.971031800145	0.0998856001533568
201422	100	326	stimuli\plant2\lemontree\plant_lemontree10.jpg   	1	5	1	plant_lemontree10.jpg	plant2   	7	lemontree 	22	lemontree10 	229	alive    	1	still	0	natural 	1	n	0	0    	 	0.0	0	238.021122500068	238.121028500143	0.0999060000758618
201572	100	327	stimuli\movArt\car\ma_car02.jpg                  	1	5	1	ma_car02.jpg         	movArt   	2	car       	5	car02       	51	not_alive	0	moves	1	artefact	0	n	0	0    	 	0.0	0	238.171124600107	238.271054700017	0.0999300999101251
201722	100	328	stimuli\plant2\clover\plant_clover10.jpg         	1	5	1	plant_clover10.jpg   	plant2   	7	clover    	9	clover10    	99	alive    	1	still	0	natural 	1	n	0	0    	 	0.0	0	238.321137400111	238.421038300032	0.0999008999206125
201872	100	329	stimuli\animals2\whale\animal_whale09.jpg        	1	5	1	animal_whale09.jpg   	animals2 	1	whale     	39	whale09     	398	alive    	1	moves	1	natural 	1	n	0	0    	 	0.0	0	238.47113550012	238.571032500127	0.0998970000073313
202022	100	330	stimuli\plant2\fern\plant_fern06.jpg             	1	5	1	plant_fern06.jpg     	plant2   	7	fern      	14	fern06      	145	alive    	1	still	0	natural 	1	n	0	0    	 	0.0	0	238.62113089999198	238.721029900014	0.0998990000225603
202172	100	331	stimuli\nonmovArt\bench\nma_bench07.jpg          	1	5	1	nma_bench07.jpg      	nonmovArt	4	bench     	1	bench07     	16	not_alive	0	still	0	artefact	0	n	0	0    	 	0.0	0	238.771123399958	238.87103180005198	0.0999084000941366
202322	100	332	stimuli\nonmovNat\rock\nmn_rock04.jpg            	1	5	1	nmn_rock04.jpg       	nonmovNat	5	rock      	30	rock04      	303	not_alive	0	still	0	natural 	1	n	1	0    	 	0.0	0	238.921126500005	239.02104240004	0.0999159000348299
202472	100	333	stimuli\movNat\hotspring\mn_hotspring05.jpg      	1	5	1	mn_hotspring05.jpg   	movNat   	3	hotspring 	21	hotspring05 	214	not_alive	0	moves	1	natural 	1	n	0	0    	 	0.0	0	239.071109600132	239.17113730008703	0.10002769995480802
202622	100	334	stimuli\plant\grass\plant_grass02.jpg            	1	5	1	plant_grass02.jpg    	plant    	6	grass     	17	grass02     	171	alive    	1	still	0	natural 	1	n	0	1    	f	0.3920313999988139	1	239.221127900062	239.32107740012	0.0999495000578463
202772	100	335	stimuli\nonmovNat\cliff\nmn_cliff08.jpg          	1	5	1	nmn_cliff08.jpg      	nonmovNat	5	cliff     	7	cliff08     	77	not_alive	0	still	0	natural 	1	n	0	0    	 	0.0	0	239.37111970013902	239.471023299964	0.0999035998247563
202922	100	336	stimuli\plant2\fern\plant_fern08.jpg             	1	5	1	plant_fern08.jpg     	plant2   	7	fern      	14	fern08      	147	alive    	1	still	0	natural 	1	n	0	0    	 	0.0	0	239.52112119994098	239.621026600013	0.0999054000712931
203072	100	337	stimuli\plant2\moss\plant_moss04.jpg             	1	5	1	plant_moss04.jpg     	plant2   	7	moss      	25	moss04      	253	alive    	1	still	0	natural 	1	n	0	0    	 	0.0	0	239.671113000018	239.771024300018	0.0999112999998033
203222	100	338	stimuli\movNat\river\mn_river07.jpg              	1	5	1	mn_river07.jpg       	movNat   	3	river     	29	river07     	296	not_alive	0	moves	1	natural 	1	n	0	0    	 	0.0	0	239.82111999997898	239.920995099936	0.0998750999569892
203372	100	339	stimuli\nonmovNat\shell\nmn_shell01.jpg          	1	5	1	nmn_shell01.jpg      	nonmovNat	5	shell     	32	shell01     	320	not_alive	0	still	0	natural 	1	n	0	0    	 	0.0	0	239.97111280006402	240.07101930002702	0.0999064999632537
203522	100	340	stimuli\plant\flower\plant_flower10.jpg          	1	5	1	plant_flower10.jpg   	plant    	6	flower    	16	flower10    	169	alive    	1	still	0	natural 	1	n	0	0    	 	0.0	0	240.121123400051	240.221004199935	0.0998807998839765
203672	100	341	stimuli\movArt\helicopter\ma_helicopter01.jpg    	1	5	1	ma_helicopter01.jpg  	movArt   	2	helicopter	19	helicopter01	190	not_alive	0	moves	1	artefact	0	n	0	0    	 	0.0	0	240.270996500039	240.371033600066	0.100037100026384
203822	100	342	stimuli\plant2\palmtree\plant_palmtree09.jpg     	1	5	1	plant_palmtree09.jpg 	plant2   	7	palmtree  	27	palmtree09  	278	alive    	1	still	0	natural 	1	n	0	0    	 	0.0	0	240.421151099959	240.521045299945	0.0998941999860108
203972	100	343	stimuli\plant\grass\plant_grass03.jpg            	1	5	1	plant_grass03.jpg    	plant    	6	grass     	17	grass03     	172	alive    	1	still	0	natural 	1	n	1	0    	 	0.0	0	240.571156300139	240.671058200067	0.099901899928227
204122	100	344	stimuli\animals\dolphin\animal_dolphin09.jpg     	1	5	1	animal_dolphin09.jpg 	animals  	0	dolphin   	12	dolphin09   	128	alive    	1	moves	1	natural 	1	n	0	0    	 	0.0	0	240.72114689997397	240.82102579996	0.0998788999859243
204272	100	345	stimuli\plant2\lemontree\plant_lemontree02.jpg   	1	5	1	plant_lemontree02.jpg	plant2   	7	lemontree 	22	lemontree02 	221	alive    	1	still	0	natural 	1	n	0	1    	f	0.39197069988586003	1	240.871141799958	240.971125700045	0.0999839000869542
204422	100	346	stimuli\plant\tree\plant_tree04.jpg              	1	5	1	plant_tree04.jpg     	plant    	6	tree      	35	tree04      	353	alive    	1	still	0	natural 	1	n	0	0    	 	0.0	0	241.02121450007004	241.12104200012996	0.0998275000602006
204572	100	347	stimuli\movArt\bus\ma_bus03.jpg                  	1	5	1	ma_bus03.jpg         	movArt   	2	bus       	3	bus03       	32	not_alive	0	moves	1	artefact	0	n	0	0    	 	0.0	0	241.171178899938	241.271013699938	0.0998347999993711
204722	100	348	stimuli\animals\dolphin\animal_dolphin09.jpg     	1	5	1	animal_dolphin09.jpg 	animals  	0	dolphin   	12	dolphin09   	128	alive    	1	moves	1	natural 	1	n	0	0    	 	0.0	0	241.321140200132	241.421039600158	0.0998994000256061
204872	100	349	stimuli\animals2\tiger\animal_tiger09.jpg        	1	5	1	animal_tiger09.jpg   	animals2 	1	tiger     	33	tiger09     	338	alive    	1	moves	1	natural 	1	n	0	0    	 	0.0	0	241.471144899959	241.571037899936	0.0998929999768734
205022	100	350	stimuli\nonmovNat\sand\nmn_sand04.jpg            	1	5	1	nmn_sand04.jpg       	nonmovNat	5	sand      	31	sand04      	313	not_alive	0	still	0	natural 	1	n	0	0    	 	0.0	0	241.62111539999	241.721031700028	0.0999163000378757
205172	100	351	stimuli\plant\cactus\plant_cactus02.jpg          	1	5	1	plant_cactus02.jpg   	plant    	6	cactus    	4	cactus02    	41	alive    	1	still	0	natural 	1	n	0	0    	 	0.0	0	241.771140400087	241.87103789998199	0.0998974998947233
205322	100	352	stimuli\nonmovNat\cliff\nmn_cliff05.jpg          	1	5	1	nmn_cliff05.jpg      	nonmovNat	5	cliff     	7	cliff05     	74	not_alive	0	still	0	natural 	1	n	0	0    	 	0.0	0	241.921120899962	242.021036599996	0.09991570003330698
205472	100	353	stimuli\movArt\boat\ma_boat03.jpg                	1	5	1	ma_boat03.jpg        	movArt   	2	boat      	2	boat03      	22	not_alive	0	moves	1	artefact	0	n	1	0    	 	0.0	0	242.071108600125	242.17100930004398	0.0999006999190896
205622	100	354	stimuli\animals2\bee\animal_bee03.jpg            	1	5	1	animal_bee03.jpg     	animals2 	1	bee       	0	bee03       	2	alive    	1	moves	1	natural 	1	n	0	0    	 	0.0	0	242.22113239997998	242.32101860013802	0.0998862001579254
205772	100	355	stimuli\animals2\pigeon\animal_pigeon10.jpg      	1	5	1	animal_pigeon10.jpg  	animals2 	1	pigeon    	28	pigeon10    	289	alive    	1	moves	1	natural 	1	n	0	1    	f	0.39203180000185994	1	242.371165200137	242.470995000098	0.0998297999612987
205922	100	356	stimuli\plant2\moss\plant_moss03.jpg             	1	5	1	plant_moss03.jpg     	plant2   	7	moss      	25	moss03      	252	alive    	1	still	0	natural 	1	n	0	0    	 	0.0	0	242.521134900162	242.621025900124	0.0998909999616444
206072	100	357	stimuli\nonmovNat\cliff\nmn_cliff03.jpg          	1	5	1	nmn_cliff03.jpg      	nonmovNat	5	cliff     	7	cliff03     	72	not_alive	0	still	0	natural 	1	n	0	0    	 	0.0	0	242.67112930002602	242.771123199956	0.0999938999302685
206222	100	358	stimuli\animals2\bee\animal_bee04.jpg            	1	5	1	animal_bee04.jpg     	animals2 	1	bee       	0	bee04       	3	alive    	1	moves	1	natural 	1	n	0	0    	 	0.0	0	242.82124950015	242.921013199957	0.0997636998072266
206372	100	359	stimuli\movNat\river\mn_river01.jpg              	1	5	1	mn_river01.jpg       	movNat   	3	river     	29	river01     	290	not_alive	0	moves	1	natural 	1	n	0	0    	 	0.0	0	242.971128999954	243.07102599996102	0.0998970000073313
206522	100	360	stimuli\movArt\boat\ma_boat08.jpg                	1	5	1	ma_boat08.jpg        	movArt   	2	boat      	2	boat08      	27	not_alive	0	moves	1	artefact	0	n	0	0    	 	0.0	0	243.12112440005902	243.221021400066	0.0998970000073313
206672	100	361	stimuli\animals2\bee\animal_bee06.jpg            	1	5	1	animal_bee06.jpg     	animals2 	1	bee       	0	bee06       	5	alive    	1	moves	1	natural 	1	n	0	0    	 	0.0	0	243.271155100083	243.37099090009	0.0998358000069856
206822	100	362	stimuli\nonmovArt\bench\nma_bench10.jpg          	1	5	1	nma_bench10.jpg      	nonmovArt	4	bench     	1	bench10     	19	not_alive	0	still	0	artefact	0	n	0	0    	 	0.0	0	243.42109329998502	243.520998399938	0.0999050999525934
206972	100	363	stimuli\movNat\hotspring\mn_hotspring06.jpg      	1	5	1	mn_hotspring06.jpg   	movNat   	3	hotspring 	21	hotspring06 	215	not_alive	0	moves	1	natural 	1	n	0	0    	 	0.0	0	243.57112630014302	243.671001699986	0.0998753998428583
207122	100	364	stimuli\nonmovNat\sand\nmn_sand03.jpg            	1	5	1	nmn_sand03.jpg       	nonmovNat	5	sand      	31	sand03      	312	not_alive	0	still	0	natural 	1	n	0	0    	 	0.0	0	243.721125500044	243.821001700126	0.0998762000817805
207272	100	365	stimuli\plant\tree\plant_tree02.jpg              	1	5	1	plant_tree02.jpg     	plant    	6	tree      	35	tree02      	351	alive    	1	still	0	natural 	1	n	0	0    	 	0.0	0	243.871119100135	243.971018400043	0.0998992999084293
207422	100	366	stimuli\nonmovArt\lock\nma_lock04.jpg            	1	5	1	nma_lock04.jpg       	nonmovArt	4	lock      	24	lock04      	243	not_alive	0	still	0	artefact	0	n	0	0    	 	0.0	0	244.021118200151	244.121014800156	0.0998966000042855
207572	100	367	stimuli\animals\dolphin\animal_dolphin06.jpg     	1	5	1	animal_dolphin06.jpg 	animals  	0	dolphin   	12	dolphin06   	125	alive    	1	moves	1	natural 	1	n	0	0    	 	0.0	0	244.17108470015202	244.271005399991	0.0999206998385489
207722	100	368	stimuli\plant\cactus\plant_cactus07.jpg          	1	5	1	plant_cactus07.jpg   	plant    	6	cactus    	4	cactus07    	46	alive    	1	still	0	natural 	1	n	0	0    	 	0.0	0	244.32111390004903	244.421014799969	0.0999008999206125
207872	100	369	stimuli\nonmovArt\lock\nma_lock10.jpg            	1	5	1	nma_lock10.jpg       	nonmovArt	4	lock      	24	lock10      	249	not_alive	0	still	0	artefact	0	n	1	0    	 	0.0	0	244.471131399972	244.57110309996602	0.0999716999940574
208022	100	370	stimuli\animals\eagle\animal_eagle10.jpg         	1	5	1	animal_eagle10.jpg   	animals  	0	eagle     	13	eagle10     	139	alive    	1	moves	1	natural 	1	n	0	0    	 	0.0	0	244.62115980009497	244.721017000033	0.0998571999371051
208172	100	371	stimuli\animals\horse\animal_horse02.jpg         	1	5	1	animal_horse02.jpg   	animals  	0	horse     	20	horse02     	201	alive    	1	moves	1	natural 	1	n	0	1    	f	0.391956400126219	1	244.77111069997798	244.871014200151	0.0999035001732409
208322	100	372	stimuli\plant\tree\plant_tree04.jpg              	1	5	1	plant_tree04.jpg     	plant    	6	tree      	35	tree04      	353	alive    	1	still	0	natural 	1	n	0	0    	 	0.0	0	244.921083300142	245.02101440005902	0.0999310999177396
208472	100	373	stimuli\animals\dog\animal_dog10.jpg             	1	5	1	animal_dog10.jpg     	animals  	0	dog       	11	dog10       	119	alive    	1	moves	1	natural 	1	n	0	0    	 	0.0	0	245.071096500149	245.170984700089	0.0998881999403238
208622	100	374	stimuli\plant2\lemontree\plant_lemontree09.jpg   	1	5	1	plant_lemontree09.jpg	plant2   	7	lemontree 	22	lemontree09 	228	alive    	1	still	0	natural 	1	n	0	0    	 	0.0	0	245.22110540000702	245.32100250013198	0.0998971001245081
208772	100	375	stimuli\animals\horse\animal_horse02.jpg         	1	5	1	animal_horse02.jpg   	animals  	0	horse     	20	horse02     	201	alive    	1	moves	1	natural 	1	n	0	0    	 	0.0	0	245.37108640000199	245.470978900092	0.0998925000894814
208922	100	376	stimuli\animals\cat\animal_cat06.jpg             	1	5	1	animal_cat06.jpg     	animals  	0	cat       	6	cat06       	65	alive    	1	moves	1	natural 	1	n	0	0    	 	0.0	0	245.521062300075	245.621003899956	0.0999415998812764
209072	100	377	stimuli\movArt\helicopter\ma_helicopter08.jpg    	1	5	1	ma_helicopter08.jpg  	movArt   	2	helicopter	19	helicopter08	197	not_alive	0	moves	1	artefact	0	n	0	0    	 	0.0	0	245.67110659997002	245.770996100036	0.09988950006663799
209222	100	378	stimuli\animals\dolphin\animal_dolphin04.jpg     	1	5	1	animal_dolphin04.jpg 	animals  	0	dolphin   	12	dolphin04   	123	alive    	1	moves	1	natural 	1	n	0	0    	 	0.0	0	245.821077700006	245.92098219995398	0.0999044999480247
209372	100	379	stimuli\plant2\fern\plant_fern04.jpg             	1	5	1	plant_fern04.jpg     	plant2   	7	fern      	14	fern04      	143	alive    	1	still	0	natural 	1	n	0	0    	 	0.0	0	245.97107239998903	246.07097400003101	0.099901600042358
209522	100	380	stimuli\nonmovArt\headphones\nma_headphones03.jpg	1	5	1	nma_headphones03.jpg 	nonmovArt	4	headphones	18	headphones03	182	not_alive	0	still	0	artefact	0	n	0	0    	 	0.0	0	246.121094600065	246.22101730015098	0.0999227000866085
209672	100	381	stimuli\animals2\lemur\animal_lemur08.jpg        	1	5	1	animal_lemur08.jpg   	animals2 	1	lemur     	23	lemur08     	237	alive    	1	moves	1	natural 	1	n	0	0    	 	0.0	0	246.27106570010102	246.371061600046	0.0999958999454975
209822	100	382	stimuli\movNat\fire\mn_fire06.jpg                	1	5	1	mn_fire06.jpg        	movNat   	3	fire      	15	fire06      	155	not_alive	0	moves	1	natural 	1	n	0	0    	 	0.0	0	246.42107390007004	246.520961400121	0.0998875000514089
209972	100	383	stimuli\nonmovNat\sand\nmn_sand02.jpg            	1	5	1	nmn_sand02.jpg       	nonmovNat	5	sand      	31	sand02      	311	not_alive	0	still	0	natural 	1	n	0	0    	 	0.0	0	246.571064100135	246.670967400074	0.0999032999388873
210122	100	384	stimuli\nonmovNat\sand\nmn_sand04.jpg            	1	5	1	nmn_sand04.jpg       	nonmovNat	5	sand      	31	sand04      	313	not_alive	0	still	0	natural 	1	n	0	0    	 	0.0	0	246.72109599993598	246.82099040015598	0.0998944002203643
210272	100	385	stimuli\plant2\palmtree\plant_palmtree09.jpg     	1	5	1	plant_palmtree09.jpg 	plant2   	7	palmtree  	27	palmtree09  	278	alive    	1	still	0	natural 	1	n	0	0    	 	0.0	0	246.87109010014703	246.970949199982	0.0998590998351574
210422	100	386	stimuli\animals2\whale\animal_whale01.jpg        	1	5	1	animal_whale01.jpg   	animals2 	1	whale     	39	whale01     	390	alive    	1	moves	1	natural 	1	n	0	0    	 	0.0	0	247.021064399974	247.12096119997997	0.0998968000058084
210572	100	387	stimuli\movArt\bus\ma_bus05.jpg                  	1	5	1	ma_bus05.jpg         	movArt   	2	bus       	3	bus05       	34	not_alive	0	moves	1	artefact	0	n	0	0    	 	0.0	0	247.171103300061	247.27097079996003	0.0998674998991191
210722	100	388	stimuli\movNat\river\mn_river06.jpg              	1	5	1	mn_river06.jpg       	movNat   	3	river     	29	river06     	295	not_alive	0	moves	1	natural 	1	n	0	0    	 	0.0	0	247.321089900099	247.42098610009998	0.0998962000012397
210872	100	389	stimuli\nonmovArt\clothespeg\nma_clothespeg04.jpg	1	5	1	nma_clothespeg04.jpg 	nonmovArt	4	clothespeg	8	clothespeg04	83	not_alive	0	still	0	artefact	0	n	0	0    	 	0.0	0	247.471079600044	247.57099160016497	0.0999120001215487
211022	100	390	stimuli\movArt\boat\ma_boat10.jpg                	1	5	1	ma_boat10.jpg        	movArt   	2	boat      	2	boat10      	29	not_alive	0	moves	1	artefact	0	n	0	0    	 	0.0	0	247.621097899973	247.720956600038	0.0998587000649422
211172	100	391	stimuli\movArt\train\ma_train08.jpg              	1	5	1	ma_train08.jpg       	movArt   	2	train     	34	train08     	347	not_alive	0	moves	1	artefact	0	n	0	0    	 	0.0	0	247.77109019993802	247.87096900004	0.0998788001015782
211322	100	392	stimuli\animals\eagle\animal_eagle03.jpg         	1	5	1	animal_eagle03.jpg   	animals  	0	eagle     	13	eagle03     	132	alive    	1	moves	1	natural 	1	n	0	0    	 	0.0	0	247.921079900116	248.02095140004502	0.0998714999295771
211472	100	393	stimuli\movNat\river\mn_river02.jpg              	1	5	1	mn_river02.jpg       	movNat   	3	river     	29	river02     	291	not_alive	0	moves	1	natural 	1	n	0	0    	 	0.0	0	248.071181700099	248.171050500125	0.0998688000254333
211622	100	394	stimuli\animals\cat\animal_cat07.jpg             	1	5	1	animal_cat07.jpg     	animals  	0	cat       	6	cat07       	66	alive    	1	moves	1	natural 	1	n	0	0    	 	0.0	0	248.221064600162	248.320976100164	0.0999115000013262
211772	100	395	stimuli\animals2\tiger\animal_tiger05.jpg        	1	5	1	animal_tiger05.jpg   	animals2 	1	tiger     	33	tiger05     	334	alive    	1	moves	1	natural 	1	n	0	0    	 	0.0	0	248.371051399969	248.470987700159	0.0999363001901656
211922	100	396	stimuli\plant2\moss\plant_moss05.jpg             	1	5	1	plant_moss05.jpg     	plant2   	7	moss      	25	moss05      	254	alive    	1	still	0	natural 	1	n	0	0    	 	0.0	0	248.52108220011002	248.620967900148	0.0998857000377029
212072	100	397	stimuli\plant\grass\plant_grass01.jpg            	1	5	1	plant_grass01.jpg    	plant    	6	grass     	17	grass01     	170	alive    	1	still	0	natural 	1	n	0	0    	 	0.0	0	248.670978200156	248.770949600032	0.0999713998753577
212222	100	398	stimuli\plant\vine\plant_vine01.jpg              	1	5	1	plant_vine01.jpg     	plant    	6	vine      	36	vine01      	360	alive    	1	still	0	natural 	1	n	0	0    	 	0.0	0	248.821073899977	248.92096949997398	0.09989559999667098
212372	100	399	stimuli\animals2\pigeon\animal_pigeon07.jpg      	1	5	1	animal_pigeon07.jpg  	animals2 	1	pigeon    	28	pigeon07    	286	alive    	1	moves	1	natural 	1	n	0	0    	 	0.0	0	248.971062300028	249.07096110004903	0.0998988000210374
224921	100	400	stimuli\animals2\bee\animal_bee02.jpg            	1	6	1	animal_bee02.jpg     	animals2 	1	bee       	0	bee02       	1	alive    	1	moves	1	natural 	1	n	0	0    	 	0.0	0	261.52007420011796	261.62005440006	0.0999801999423652
225071	100	401	stimuli\movNat\waterfall\mn_waterfall05.jpg      	1	6	1	mn_waterfall05.jpg   	movNat   	3	waterfall 	37	waterfall05 	374	not_alive	0	moves	1	natural 	1	n	0	0    	 	0.0	0	261.670058200136	261.770052300068	0.0999940999317914
225221	100	402	stimuli\animals2\pigeon\animal_pigeon02.jpg      	1	6	1	animal_pigeon02.jpg  	animals2 	1	pigeon    	28	pigeon02    	281	alive    	1	moves	1	natural 	1	n	0	0    	 	0.0	0	261.820062299957	261.920051000081	0.0999887001235038
225371	100	403	stimuli\nonmovNat\cliff\nmn_cliff08.jpg          	1	6	1	nmn_cliff08.jpg      	nonmovNat	5	cliff     	7	cliff08     	77	not_alive	0	still	0	natural 	1	n	0	0    	 	0.0	0	261.97006010008	262.070001800079	0.0999416999984532
225521	100	404	stimuli\animals\cat\animal_cat03.jpg             	1	6	1	animal_cat03.jpg     	animals  	0	cat       	6	cat03       	62	alive    	1	moves	1	natural 	1	n	0	0    	 	0.0	0	262.120048600016	262.22003460000303	0.0999859999865293
225671	100	405	stimuli\movArt\car\ma_car10.jpg                  	1	6	1	ma_car10.jpg         	movArt   	2	car       	5	car10       	59	not_alive	0	moves	1	artefact	0	n	0	0    	 	0.0	0	262.27006470016204	262.370042599971	0.0999778998084366
225821	100	406	stimuli\plant\vine\plant_vine07.jpg              	1	6	1	plant_vine07.jpg     	plant    	6	vine      	36	vine07      	366	alive    	1	still	0	natural 	1	n	0	0    	 	0.0	0	262.420042000013	262.520035000052	0.0999930000398308
225971	100	407	stimuli\movNat\waterfall\mn_waterfall07.jpg      	1	6	1	mn_waterfall07.jpg   	movNat   	3	waterfall 	37	waterfall07 	376	not_alive	0	moves	1	natural 	1	n	0	0    	 	0.0	0	262.570046100067	262.670017299941	0.0999711998738348
226121	100	408	stimuli\plant2\lemontree\plant_lemontree06.jpg   	1	6	1	plant_lemontree06.jpg	plant2   	7	lemontree 	22	lemontree06 	225	alive    	1	still	0	natural 	1	n	0	0    	 	0.0	0	262.720049800118	262.820031699957	0.0999818998388946
226271	100	409	stimuli\movNat\fire\mn_fire01.jpg                	1	6	1	mn_fire01.jpg        	movNat   	3	fire      	15	fire01      	150	not_alive	0	moves	1	natural 	1	n	0	0    	 	0.0	0	262.870048500132	262.970078400103	0.10002989997156
226421	100	410	stimuli\plant\vine\plant_vine04.jpg              	1	6	1	plant_vine04.jpg     	plant    	6	vine      	36	vine04      	363	alive    	1	still	0	natural 	1	n	0	0    	 	0.0	0	263.02006270014704	263.120032000123	0.0999692999757826
226571	100	411	stimuli\nonmovNat\crystal\nmn_crystal05.jpg      	1	6	1	nmn_crystal05.jpg    	nonmovNat	5	crystal   	10	crystal05   	104	not_alive	0	still	0	natural 	1	n	0	0    	 	0.0	0	263.170035799965	263.27002970012796	0.0999939001630991
226721	100	412	stimuli\animals2\whale\animal_whale08.jpg        	1	6	1	animal_whale08.jpg   	animals2 	1	whale     	39	whale08     	397	alive    	1	moves	1	natural 	1	n	0	0    	 	0.0	0	263.320032699965	263.420023000101	0.099990300135687
226871	100	413	stimuli\animals2\tiger\animal_tiger02.jpg        	1	6	1	animal_tiger02.jpg   	animals2 	1	tiger     	33	tiger02     	331	alive    	1	moves	1	natural 	1	n	0	0    	 	0.0	0	263.470038300147	263.57002720003896	0.099988899892196
227021	100	414	stimuli\nonmovNat\cliff\nmn_cliff02.jpg          	1	6	1	nmn_cliff02.jpg      	nonmovNat	5	cliff     	7	cliff02     	71	not_alive	0	still	0	natural 	1	n	0	0    	 	0.0	0	263.620029800106	263.72002350003504	0.0999936999287456
227171	100	415	stimuli\movNat\fire\mn_fire05.jpg                	1	6	1	mn_fire05.jpg        	movNat   	3	fire      	15	fire05      	154	not_alive	0	moves	1	natural 	1	n	0	0    	 	0.0	0	263.770029000007	263.87002240004904	0.0999934000428766
227321	100	416	stimuli\plant\cactus\plant_cactus05.jpg          	1	6	1	plant_cactus05.jpg   	plant    	6	cactus    	4	cactus05    	44	alive    	1	still	0	natural 	1	n	0	0    	 	0.0	0	263.920034599956	264.02001330000303	0.0999787000473588
