onset	duration	eventnumber	stimulus_file	blockno	trialno	is_faststream	stim	stim_category	category_number	exemplar	exemplar_number	image_name	image_number	aliveness	aliveness_bin	movement	movement_bin	naturalness	naturalness_bin	response_hand_moves	istarget	response	keypressed	rt	correct	time_stimon	time_stimoff	stimdur
94672	100	0	stimuli\plant2\lemontree\plant_lemontree08.jpg   	1	1	1	plant_lemontree08.jpg	plant2   	7	lemontree 	22	lemontree08 	227	alive    	1	still	0	natural 	1	n	0	0    	 	0.0	0	54.8879680999998	54.98786820000171	0.0999001000018324
94822	100	1	stimuli\animals\cat\animal_cat09.jpg             	1	1	1	animal_cat09.jpg     	animals  	0	cat       	6	cat09       	68	alive    	1	moves	1	natural 	1	n	0	0    	 	0.0	0	55.0379743000012	55.13785130000179	0.0998770000005606
94972	100	2	stimuli\movNat\river\mn_river10.jpg              	1	1	1	mn_river10.jpg       	movNat   	3	river     	29	river10     	299	not_alive	0	moves	1	natural 	1	n	0	0    	 	0.0	0	55.1879532000021	55.2878549000015	0.0999016999994637
95122	100	3	stimuli\animals2\tiger\animal_tiger05.jpg        	1	1	1	animal_tiger05.jpg   	animals2 	1	tiger     	33	tiger05     	334	alive    	1	moves	1	natural 	1	n	0	0    	 	0.0	0	55.337957300002	55.43785260000001	0.0998952999980247
95272	100	4	stimuli\animals\dog\animal_dog08.jpg             	1	1	1	animal_dog08.jpg     	animals  	0	dog       	11	dog08       	117	alive    	1	moves	1	natural 	1	n	0	0    	 	0.0	0	55.487949599999396	55.587855400001004	0.0999058000015793
95422	100	5	stimuli\nonmovArt\lock\nma_lock04.jpg            	1	1	1	nma_lock04.jpg       	nonmovArt	4	lock      	24	lock04      	243	not_alive	0	still	0	artefact	0	n	0	0    	 	0.0	0	55.63794509999929	55.7378449999996	0.0998999000003095
95572	100	6	stimuli\animals\horse\animal_horse08.jpg         	1	1	1	animal_horse08.jpg   	animals  	0	horse     	20	horse08     	207	alive    	1	moves	1	natural 	1	n	0	0    	 	0.0	0	55.7879619000014	55.887842399999506	0.0998804999981075
95722	100	7	stimuli\movArt\boat\ma_boat06.jpg                	1	1	1	ma_boat06.jpg        	movArt   	2	boat      	2	boat06      	25	not_alive	0	moves	1	artefact	0	n	0	0    	 	0.0	0	55.9379405	56.0378702000016	0.0999297000016668
95873	100	8	stimuli\animals2\lemur\animal_lemur04.jpg        	1	1	1	animal_lemur04.jpg   	animals2 	1	lemur     	23	lemur04     	233	alive    	1	moves	1	natural 	1	n	0	0    	 	0.0	0	56.0883266000019	56.1879389999995	0.099612399997568
96022	100	9	stimuli\movNat\waterfall\mn_waterfall05.jpg      	1	1	1	mn_waterfall05.jpg   	movNat   	3	waterfall 	37	waterfall05 	374	not_alive	0	moves	1	natural 	1	n	0	0    	 	0.0	0	56.23794560000171	56.33784060000111	0.0998949999993783
96172	100	10	stimuli\plant2\clover\plant_clover07.jpg         	1	1	1	plant_clover07.jpg   	plant2   	7	clover    	9	clover07    	96	alive    	1	still	0	natural 	1	n	0	0    	 	0.0	0	56.387937800002	56.487844300001605	0.0999064999996335
96322	100	11	stimuli\movArt\bus\ma_bus02.jpg                  	1	1	1	ma_bus02.jpg         	movArt   	2	bus       	3	bus02       	31	not_alive	0	moves	1	artefact	0	n	0	0    	 	0.0	0	56.53793919999951	56.6378503000014	0.0999111000019183
96472	100	12	stimuli\nonmovArt\clothespeg\nma_clothespeg10.jpg	1	1	1	nma_clothespeg10.jpg 	nonmovArt	4	clothespeg	8	clothespeg10	89	not_alive	0	still	0	artefact	0	n	0	0    	 	0.0	0	56.6879286000003	56.7878349999992	0.099906399998872
96622	100	13	stimuli\animals2\pigeon\animal_pigeon07.jpg      	1	1	1	animal_pigeon07.jpg  	animals2 	1	pigeon    	28	pigeon07    	286	alive    	1	moves	1	natural 	1	n	0	0    	 	0.0	0	56.8378548000001	56.9378776000012	0.10002280000117
96772	100	14	stimuli\nonmovArt\mug\nma_mug04.jpg              	1	1	1	nma_mug04.jpg        	nonmovArt	4	mug       	26	mug04       	263	not_alive	0	still	0	artefact	0	n	0	0    	 	0.0	0	56.987960900001795	57.087869200000604	0.0999082999987877
96921	100	15	stimuli\plant\vine\plant_vine10.jpg              	1	1	1	plant_vine10.jpg     	plant    	6	vine      	36	vine10      	369	alive    	1	still	0	natural 	1	n	0	0    	 	0.0	0	57.1370735000019	57.2370570999992	0.0999835999973584
97071	100	16	stimuli\movNat\river\mn_river02.jpg              	1	1	1	mn_river02.jpg       	movNat   	3	river     	29	river02     	291	not_alive	0	moves	1	natural 	1	n	0	0    	 	0.0	0	57.2870710999996	57.387065499999196	0.0999943999995594
97221	100	17	stimuli\animals\dolphin\animal_dolphin08.jpg     	1	1	1	animal_dolphin08.jpg 	animals  	0	dolphin   	12	dolphin08   	127	alive    	1	moves	1	natural 	1	n	0	0    	 	0.0	0	57.437066500002395	57.5370573	0.099990799997613
97371	100	18	stimuli\movArt\bus\ma_bus02.jpg                  	1	1	1	ma_bus02.jpg         	movArt   	2	bus       	3	bus02       	31	not_alive	0	moves	1	artefact	0	n	0	0    	 	0.0	0	57.587068100001495	57.6870500000005	0.0999818999989656
97521	100	19	stimuli\plant2\fern\plant_fern10.jpg             	1	1	1	plant_fern10.jpg     	plant2   	7	fern      	14	fern10      	149	alive    	1	still	0	natural 	1	n	0	0    	 	0.0	0	57.7370613999992	57.8370491000023	0.0999877000031119
97671	100	20	stimuli\nonmovArt\headphones\nma_headphones03.jpg	1	1	1	nma_headphones03.jpg 	nonmovArt	4	headphones	18	headphones03	182	not_alive	0	still	0	artefact	0	n	0	0    	 	0.0	0	57.8870639000015	57.9870437999998	0.0999798999982886
97821	100	21	stimuli\plant2\fern\plant_fern03.jpg             	1	1	1	plant_fern03.jpg     	plant2   	7	fern      	14	fern03      	142	alive    	1	still	0	natural 	1	n	0	0    	 	0.0	0	58.0370834999994	58.1370510000015	0.0999675000020943
97971	100	22	stimuli\nonmovArt\headphones\nma_headphones10.jpg	1	1	1	nma_headphones10.jpg 	nonmovArt	4	headphones	18	headphones10	189	not_alive	0	still	0	artefact	0	n	0	0    	 	0.0	0	58.18705939999929	58.287051200000896	0.0999918000015895
98121	100	23	stimuli\nonmovNat\rock\nmn_rock08.jpg            	1	1	1	nmn_rock08.jpg       	nonmovNat	5	rock      	30	rock08      	307	not_alive	0	still	0	natural 	1	n	0	0    	 	0.0	0	58.3370590000013	58.4370488999994	0.0999898999980359
98271	100	24	stimuli\plant2\palmtree\plant_palmtree05.jpg     	1	1	1	plant_palmtree05.jpg 	plant2   	7	palmtree  	27	palmtree05  	274	alive    	1	still	0	natural 	1	n	0	0    	 	0.0	0	58.4870580999996	58.5870422000007	0.0999841000011656
98421	100	25	stimuli\movNat\waves\mn_waves02.jpg              	1	1	1	mn_waves02.jpg       	movNat   	3	waves     	38	waves02     	381	not_alive	0	moves	1	natural 	1	n	1	0    	 	0.0	0	58.6370499000004	58.737044100002095	0.0999942000016744
98571	100	26	stimuli\movArt\bus\ma_bus06.jpg                  	1	1	1	ma_bus06.jpg         	movArt   	2	bus       	3	bus06       	35	not_alive	0	moves	1	artefact	0	n	0	0    	 	0.0	0	58.7870528000021	58.8870447000008	0.09999189999871301
98721	100	27	stimuli\plant\grass\plant_grass03.jpg            	1	1	1	plant_grass03.jpg    	plant    	6	grass     	17	grass03     	172	alive    	1	still	0	natural 	1	n	0	1    	f	0.29211370000121	1	58.937054500002006	59.0370368000004	0.0999822999983734
98871	100	28	stimuli\nonmovNat\sand\nmn_sand09.jpg            	1	1	1	nmn_sand09.jpg       	nonmovNat	5	sand      	31	sand09      	318	not_alive	0	still	0	natural 	1	n	0	0    	 	0.0	0	59.0870460000006	59.187039000000404	0.09999299999981301
99021	100	29	stimuli\plant2\clover\plant_clover09.jpg         	1	1	1	plant_clover09.jpg   	plant2   	7	clover    	9	clover09    	98	alive    	1	still	0	natural 	1	n	0	0    	 	0.0	0	59.23704930000171	59.33703149999929	0.099982199997612
99171	100	30	stimuli\animals2\whale\animal_whale10.jpg        	1	1	1	animal_whale10.jpg   	animals2 	1	whale     	39	whale10     	399	alive    	1	moves	1	natural 	1	n	0	0    	 	0.0	0	59.3870483999999	59.487037999999295	0.0999895999993896
99321	100	31	stimuli\nonmovArt\lock\nma_lock05.jpg            	1	1	1	nma_lock05.jpg       	nonmovArt	4	lock      	24	lock05      	244	not_alive	0	still	0	artefact	0	n	0	0    	 	0.0	0	59.537041300001896	59.6370342000009	0.0999928999990516
99471	100	32	stimuli\animals\dolphin\animal_dolphin07.jpg     	1	1	1	animal_dolphin07.jpg 	animals  	0	dolphin   	12	dolphin07   	126	alive    	1	moves	1	natural 	1	n	0	0    	 	0.0	0	59.6870531999994	59.787032800002606	0.0999796000032802
99621	100	33	stimuli\movNat\waves\mn_waves07.jpg              	1	1	1	mn_waves07.jpg       	movNat   	3	waves     	38	waves07     	386	not_alive	0	moves	1	natural 	1	n	0	0    	 	0.0	0	59.83708739999929	59.9370259999996	0.0999386000003141
99771	100	34	stimuli\plant2\moss\plant_moss01.jpg             	1	1	1	plant_moss01.jpg     	plant2   	7	moss      	25	moss01      	250	alive    	1	still	0	natural 	1	n	0	0    	 	0.0	0	59.987045800000494	60.0870231000008	0.0999773000003188
99921	100	35	stimuli\nonmovNat\shell\nmn_shell04.jpg          	1	1	1	nmn_shell04.jpg      	nonmovNat	5	shell     	32	shell04     	323	not_alive	0	still	0	natural 	1	n	0	0    	 	0.0	0	60.13702980000011	60.2370305000004	0.100000700000237
100071	100	36	stimuli\movArt\helicopter\ma_helicopter07.jpg    	1	1	1	ma_helicopter07.jpg  	movArt   	2	helicopter	19	helicopter07	196	not_alive	0	moves	1	artefact	0	n	0	0    	 	0.0	0	60.287038599999505	60.3870282000025	0.0999896000030276
100221	100	37	stimuli\plant2\moss\plant_moss03.jpg             	1	1	1	plant_moss03.jpg     	plant2   	7	moss      	25	moss03      	252	alive    	1	still	0	natural 	1	n	0	0    	 	0.0	0	60.4370354999992	60.537025500001604	0.0999900000024354
100371	100	38	stimuli\nonmovArt\headphones\nma_headphones10.jpg	1	1	1	nma_headphones10.jpg 	nonmovArt	4	headphones	18	headphones10	189	not_alive	0	still	0	artefact	0	n	0	0    	 	0.0	0	60.587062500002496	60.68702269999989	0.0999601999974402
100521	100	39	stimuli\plant2\moss\plant_moss08.jpg             	1	1	1	plant_moss08.jpg     	plant2   	7	moss      	25	moss08      	257	alive    	1	still	0	natural 	1	n	0	0    	 	0.0	0	60.737030799999	60.8370243999998	0.0999936000007437
100671	100	40	stimuli\plant\grass\plant_grass06.jpg            	1	1	1	plant_grass06.jpg    	plant    	6	grass     	17	grass06     	175	alive    	1	still	0	natural 	1	n	0	0    	 	0.0	0	60.8870400000014	60.98701090000029	0.0999708999988797
100821	100	41	stimuli\movArt\train\ma_train10.jpg              	1	1	1	ma_train10.jpg       	movArt   	2	train     	34	train10     	349	not_alive	0	moves	1	artefact	0	n	0	0    	 	0.0	0	61.03702490000071	61.1370143000022	0.0999894000015046
100971	100	42	stimuli\nonmovArt\clothespeg\nma_clothespeg09.jpg	1	1	1	nma_clothespeg09.jpg 	nonmovArt	4	clothespeg	8	clothespeg09	88	not_alive	0	still	0	artefact	0	n	0	0    	 	0.0	0	61.187029500000804	61.28701329999971	0.0999837999988813
101121	100	43	stimuli\movNat\fire\mn_fire09.jpg                	1	1	1	mn_fire09.jpg        	movNat   	3	fire      	15	fire09      	158	not_alive	0	moves	1	natural 	1	n	1	0    	 	0.0	0	61.3370285000019	61.437012900001704	0.099984399999812
101271	100	44	stimuli\animals\cat\animal_cat10.jpg             	1	1	1	animal_cat10.jpg     	animals  	0	cat       	6	cat10       	69	alive    	1	moves	1	natural 	1	n	0	0    	 	0.0	0	61.487033699999294	61.5870271000022	0.0999934000028588
101421	100	45	stimuli\movNat\waterfall\mn_waterfall04.jpg      	1	1	1	mn_waterfall04.jpg   	movNat   	3	waterfall 	37	waterfall04 	373	not_alive	0	moves	1	natural 	1	n	0	1    	f	0.30022099999769103	1	61.6370678000021	61.7370088000025	0.099941000000399
101571	100	46	stimuli\plant\cactus\plant_cactus09.jpg          	1	1	1	plant_cactus09.jpg   	plant    	6	cactus    	4	cactus09    	48	alive    	1	still	0	natural 	1	n	0	0    	 	0.0	0	61.7870232999994	61.887008600002495	0.09998530000302698
101721	100	47	stimuli\movNat\fire\mn_fire07.jpg                	1	1	1	mn_fire07.jpg        	movNat   	3	fire      	15	fire07      	156	not_alive	0	moves	1	natural 	1	n	0	0    	 	0.0	0	61.93702230000049	62.0370096000006	0.0999873000000661
101871	100	48	stimuli\plant2\lemontree\plant_lemontree08.jpg   	1	1	1	plant_lemontree08.jpg	plant2   	7	lemontree 	22	lemontree08 	227	alive    	1	still	0	natural 	1	n	0	0    	 	0.0	0	62.0870146000016	62.187009000001105	0.0999943999995594
102021	100	49	stimuli\nonmovNat\sand\nmn_sand03.jpg            	1	1	1	nmn_sand03.jpg       	nonmovNat	5	sand      	31	sand03      	312	not_alive	0	still	0	natural 	1	n	0	0    	 	0.0	0	62.2370174999996	62.3370080000022	0.0999905000026046
102171	100	50	stimuli\animals\dog\animal_dog02.jpg             	1	1	1	animal_dog02.jpg     	animals  	0	dog       	11	dog02       	111	alive    	1	moves	1	natural 	1	n	0	0    	 	0.0	0	62.387019600002496	62.487004300001004	0.0999846999984583
102321	100	51	stimuli\plant\vine\plant_vine07.jpg              	1	1	1	plant_vine07.jpg     	plant    	6	vine      	36	vine07      	366	alive    	1	still	0	natural 	1	n	0	0    	 	0.0	0	62.5370135000012	62.636988000002006	0.09997450000082599
102471	100	52	stimuli\animals\cat\animal_cat04.jpg             	1	1	1	animal_cat04.jpg     	animals  	0	cat       	6	cat04       	63	alive    	1	moves	1	natural 	1	n	1	0    	 	0.0	0	62.6870286000012	62.7870046000025	0.0999760000013338
102621	100	53	stimuli\animals\dolphin\animal_dolphin08.jpg     	1	1	1	animal_dolphin08.jpg 	animals  	0	dolphin   	12	dolphin08   	127	alive    	1	moves	1	natural 	1	n	0	0    	 	0.0	0	62.837013799999106	62.937002300001	0.0999885000019276
102771	100	54	stimuli\animals\eagle\animal_eagle03.jpg         	1	1	1	animal_eagle03.jpg   	animals  	0	eagle     	13	eagle03     	132	alive    	1	moves	1	natural 	1	n	0	1    	f	0.39195889999973604	1	62.9870102999994	63.0870017000016	0.0999914000021817
102921	100	55	stimuli\nonmovNat\shell\nmn_shell06.jpg          	1	1	1	nmn_shell06.jpg      	nonmovNat	5	shell     	32	shell06     	325	not_alive	0	still	0	natural 	1	n	0	0    	 	0.0	0	63.136999900001705	63.2369943000012	0.0999943999995594
103071	100	56	stimuli\animals2\tiger\animal_tiger02.jpg        	1	1	1	animal_tiger02.jpg   	animals2 	1	tiger     	33	tiger02     	331	alive    	1	moves	1	natural 	1	n	0	0    	 	0.0	0	63.2870145000015	63.3870038999994	0.0999893999978667
103221	100	57	stimuli\nonmovArt\mug\nma_mug01.jpg              	1	1	1	nma_mug01.jpg        	nonmovArt	4	mug       	26	mug01       	260	not_alive	0	still	0	artefact	0	n	0	0    	 	0.0	0	63.437026399999	63.536995300000804	0.0999689000018406
103371	100	58	stimuli\nonmovNat\crystal\nmn_crystal07.jpg      	1	1	1	nmn_crystal07.jpg    	nonmovNat	5	crystal   	10	crystal07   	106	not_alive	0	still	0	natural 	1	n	0	0    	 	0.0	0	63.587011600000494	63.6869885000015	0.0999769000009109
103521	100	59	stimuli\animals2\bee\animal_bee01.jpg            	1	1	1	animal_bee01.jpg     	animals2 	1	bee       	0	bee01       	0	alive    	1	moves	1	natural 	1	n	0	0    	 	0.0	0	63.736998399999706	63.836986900001605	0.0999885000019276
103671	100	60	stimuli\plant\tree\plant_tree08.jpg              	1	1	1	plant_tree08.jpg     	plant    	6	tree      	35	tree08      	357	alive    	1	still	0	natural 	1	n	1	0    	 	0.0	0	63.8870017000008	63.9869911000023	0.0999894000015046
103821	100	61	stimuli\animals\horse\animal_horse07.jpg         	1	1	1	animal_horse07.jpg   	animals  	0	horse     	20	horse07     	206	alive    	1	moves	1	natural 	1	n	0	0    	 	0.0	0	64.03699450000201	64.1369899999991	0.0999954999970214
103971	100	62	stimuli\nonmovNat\rock\nmn_rock07.jpg            	1	1	1	nmn_rock07.jpg       	nonmovNat	5	rock      	30	rock07      	306	not_alive	0	still	0	natural 	1	n	0	1    	f	0.303222700000333	1	64.186999900001	64.2869900000005	0.0999900999995588
104121	100	63	stimuli\animals\horse\animal_horse10.jpg         	1	1	1	animal_horse10.jpg   	animals  	0	horse     	20	horse10     	209	alive    	1	moves	1	natural 	1	n	0	0    	 	0.0	0	64.3369963000005	64.43699439999911	0.0999980999986292
104271	100	64	stimuli\plant\tree\plant_tree08.jpg              	1	1	1	plant_tree08.jpg     	plant    	6	tree      	35	tree08      	357	alive    	1	still	0	natural 	1	n	0	0    	 	0.0	0	64.4870035999993	64.586996500002	0.0999929000026895
104421	100	65	stimuli\plant\tree\plant_tree03.jpg              	1	1	1	plant_tree03.jpg     	plant    	6	tree      	35	tree03      	352	alive    	1	still	0	natural 	1	n	0	0    	 	0.0	0	64.6370016000001	64.7369899000005	0.0999883000004047
104571	100	66	stimuli\plant2\palmtree\plant_palmtree04.jpg     	1	1	1	plant_palmtree04.jpg 	plant2   	7	palmtree  	27	palmtree04  	273	alive    	1	still	0	natural 	1	n	0	0    	 	0.0	0	64.7870002000018	64.8869990999992	0.0999988999974448
104721	100	67	stimuli\movNat\river\mn_river06.jpg              	1	1	1	mn_river06.jpg       	movNat   	3	river     	29	river06     	295	not_alive	0	moves	1	natural 	1	n	0	0    	 	0.0	0	64.93699650000049	65.03698780000201	0.0999913000014203
104871	100	68	stimuli\movNat\hotspring\mn_hotspring08.jpg      	1	1	1	mn_hotspring08.jpg   	movNat   	3	hotspring 	21	hotspring08 	217	not_alive	0	moves	1	natural 	1	n	0	0    	 	0.0	0	65.0870061000023	65.1870120000021	0.100005899999815
105021	100	69	stimuli\animals2\bee\animal_bee06.jpg            	1	1	1	animal_bee06.jpg     	animals2 	1	bee       	0	bee06       	5	alive    	1	moves	1	natural 	1	n	0	0    	 	0.0	0	65.2369964999998	65.3369822999994	0.0999857999995583
105171	100	70	stimuli\movArt\helicopter\ma_helicopter09.jpg    	1	1	1	ma_helicopter09.jpg  	movArt   	2	helicopter	19	helicopter09	198	not_alive	0	moves	1	artefact	0	n	0	0    	 	0.0	0	65.3869957999996	65.48698259999951	0.0999867999998969
105321	100	71	stimuli\plant\cactus\plant_cactus02.jpg          	1	1	1	plant_cactus02.jpg   	plant    	6	cactus    	4	cactus02    	41	alive    	1	still	0	natural 	1	n	0	0    	 	0.0	0	65.5369895000004	65.6369830000003	0.0999934999999823
105471	100	72	stimuli\animals2\pigeon\animal_pigeon02.jpg      	1	1	1	animal_pigeon02.jpg  	animals2 	1	pigeon    	28	pigeon02    	281	alive    	1	moves	1	natural 	1	n	0	0    	 	0.0	0	65.686994300002	65.7869828000003	0.0999884999982896
105621	100	73	stimuli\movArt\boat\ma_boat10.jpg                	1	1	1	ma_boat10.jpg        	movArt   	2	boat      	2	boat10      	29	not_alive	0	moves	1	artefact	0	n	0	0    	 	0.0	0	65.8369902000013	65.9369776000021	0.0999874000008276
105771	100	74	stimuli\movArt\train\ma_train09.jpg              	1	1	1	ma_train09.jpg       	movArt   	2	train     	34	train09     	348	not_alive	0	moves	1	artefact	0	n	0	0    	 	0.0	0	65.9869886000015	66.0869754000014	0.0999867999998969
105921	100	75	stimuli\movArt\car\ma_car02.jpg                  	1	1	1	ma_car02.jpg         	movArt   	2	car       	5	car02       	51	not_alive	0	moves	1	artefact	0	n	0	0    	 	0.0	0	66.1369845000008	66.2369763000024	0.0999918000015895
106071	100	76	stimuli\plant\flower\plant_flower02.jpg          	1	1	1	plant_flower02.jpg   	plant    	6	flower    	16	flower02    	161	alive    	1	still	0	natural 	1	n	0	0    	 	0.0	0	66.2869845999994	66.3869755000014	0.0999909000020125
106221	100	77	stimuli\nonmovNat\rock\nmn_rock01.jpg            	1	1	1	nmn_rock01.jpg       	nonmovNat	5	rock      	30	rock01      	300	not_alive	0	still	0	natural 	1	n	0	0    	 	0.0	0	66.4369824999994	66.5369721000025	0.0999896000030276
106371	100	78	stimuli\movNat\hotspring\mn_hotspring09.jpg      	1	1	1	mn_hotspring09.jpg   	movNat   	3	hotspring 	21	hotspring09 	218	not_alive	0	moves	1	natural 	1	n	0	0    	 	0.0	0	66.5869835000012	66.6869717000009	0.0999881999996432
106521	100	79	stimuli\animals\dog\animal_dog05.jpg             	1	1	1	animal_dog05.jpg     	animals  	0	dog       	11	dog05       	114	alive    	1	moves	1	natural 	1	n	0	0    	 	0.0	0	66.736977200002	66.8369754000014	0.0999981999993906
109622	100	80	stimuli\animals2\whale\animal_whale10.jpg        	1	2	1	animal_whale10.jpg   	animals2 	1	whale     	39	whale10     	399	alive    	1	moves	1	natural 	1	n	0	0    	 	0.0	0	69.8378205000008	69.9376890000021	0.09986850000132101
109772	100	81	stimuli\animals2\whale\animal_whale08.jpg        	1	2	1	animal_whale08.jpg   	animals2 	1	whale     	39	whale08     	397	alive    	1	moves	1	natural 	1	n	0	0    	 	0.0	0	69.9878052000022	70.08772040000261	0.099915200000396
109922	100	82	stimuli\nonmovNat\crystal\nmn_crystal09.jpg      	1	2	1	nmn_crystal09.jpg    	nonmovNat	5	crystal   	10	crystal09   	108	not_alive	0	still	0	natural 	1	n	0	0    	 	0.0	0	70.13778680000179	70.237699199999	0.0999123999972653
110072	100	83	stimuli\animals2\pigeon\animal_pigeon05.jpg      	1	2	1	animal_pigeon05.jpg  	animals2 	1	pigeon    	28	pigeon05    	284	alive    	1	moves	1	natural 	1	n	0	0    	 	0.0	0	70.2878043000019	70.3876969000012	0.0998925999992934
110222	100	84	stimuli\plant2\palmtree\plant_palmtree10.jpg     	1	2	1	plant_palmtree10.jpg 	plant2   	7	palmtree  	27	palmtree10  	279	alive    	1	still	0	natural 	1	n	0	0    	 	0.0	0	70.4378862000012	70.5377004000002	0.0998141999989457
110372	100	85	stimuli\movArt\boat\ma_boat09.jpg                	1	2	1	ma_boat09.jpg        	movArt   	2	boat      	2	boat09      	28	not_alive	0	moves	1	artefact	0	n	0	0    	 	0.0	0	70.5877882000023	70.6877167000021	0.0999284999998053
110522	100	86	stimuli\movNat\hotspring\mn_hotspring08.jpg      	1	2	1	mn_hotspring08.jpg   	movNat   	3	hotspring 	21	hotspring08 	217	not_alive	0	moves	1	natural 	1	n	0	0    	 	0.0	0	70.73776350000121	70.83769970000141	0.0999362000002292
110672	100	87	stimuli\animals2\bee\animal_bee10.jpg            	1	2	1	animal_bee10.jpg     	animals2 	1	bee       	0	bee10       	9	alive    	1	moves	1	natural 	1	n	0	0    	 	0.0	0	70.8877864000024	70.9876655000007	0.0998790999983612
110822	100	88	stimuli\nonmovNat\shell\nmn_shell03.jpg          	1	2	1	nmn_shell03.jpg      	nonmovNat	5	shell     	32	shell03     	322	not_alive	0	still	0	natural 	1	n	0	0    	 	0.0	0	71.0377966000015	71.1376789000024	0.0998823000008997
110972	100	89	stimuli\nonmovArt\bench\nma_bench03.jpg          	1	2	1	nma_bench03.jpg      	nonmovArt	4	bench     	1	bench03     	12	not_alive	0	still	0	artefact	0	n	0	0    	 	0.0	0	71.187786800001	71.2877073000018	0.099920500000735
111122	100	90	stimuli\animals2\lemur\animal_lemur09.jpg        	1	2	1	animal_lemur09.jpg   	animals2 	1	lemur     	23	lemur09     	238	alive    	1	moves	1	natural 	1	n	0	0    	 	0.0	0	71.3377954000025	71.4376922000011	0.0998967999985325
111272	100	91	stimuli\plant\flower\plant_flower01.jpg          	1	2	1	plant_flower01.jpg   	plant    	6	flower    	16	flower01    	160	alive    	1	still	0	natural 	1	n	0	0    	 	0.0	0	71.487800400002	71.5876821999991	0.0998817999970924
111422	100	92	stimuli\animals\eagle\animal_eagle05.jpg         	1	2	1	animal_eagle05.jpg   	animals  	0	eagle     	13	eagle05     	134	alive    	1	moves	1	natural 	1	n	0	0    	 	0.0	0	71.6377685000007	71.7376657000023	0.0998972000015783
111572	100	93	stimuli\plant2\lemontree\plant_lemontree04.jpg   	1	2	1	plant_lemontree04.jpg	plant2   	7	lemontree 	22	lemontree04 	223	alive    	1	still	0	natural 	1	n	0	0    	 	0.0	0	71.7877756000016	71.8876807000015	0.0999050999998871
111722	100	94	stimuli\movNat\waterfall\mn_waterfall01.jpg      	1	2	1	mn_waterfall01.jpg   	movNat   	3	waterfall 	37	waterfall01 	370	not_alive	0	moves	1	natural 	1	n	0	0    	 	0.0	0	71.9377793999993	72.0376939000016	0.0999145000023418
111872	100	95	stimuli\movArt\helicopter\ma_helicopter02.jpg    	1	2	1	ma_helicopter02.jpg  	movArt   	2	helicopter	19	helicopter02	191	not_alive	0	moves	1	artefact	0	n	0	0    	 	0.0	0	72.08779710000091	72.18768009999991	0.0998829999989538
112022	100	96	stimuli\plant2\fern\plant_fern09.jpg             	1	2	1	plant_fern09.jpg     	plant2   	7	fern      	14	fern09      	148	alive    	1	still	0	natural 	1	n	0	0    	 	0.0	0	72.23788260000221	72.33767760000049	0.0997949999982665
112172	100	97	stimuli\plant\cactus\plant_cactus03.jpg          	1	2	1	plant_cactus03.jpg   	plant    	6	cactus    	4	cactus03    	42	alive    	1	still	0	natural 	1	n	1	0    	 	0.0	0	72.3877758000017	72.4876694000013	0.099893599999632
112322	100	98	stimuli\nonmovNat\crystal\nmn_crystal04.jpg      	1	2	1	nmn_crystal04.jpg    	nonmovNat	5	crystal   	10	crystal04   	103	not_alive	0	still	0	natural 	1	n	0	0    	 	0.0	0	72.5377698000011	72.6376746000024	0.0999048000012408
112472	100	99	stimuli\nonmovNat\cliff\nmn_cliff10.jpg          	1	2	1	nmn_cliff10.jpg      	nonmovNat	5	cliff     	7	cliff10     	79	not_alive	0	still	0	natural 	1	n	0	1    	f	0.292028399999253	1	72.68779790000191	72.78767689999951	0.0998789999975997
112622	100	100	stimuli\nonmovArt\mug\nma_mug04.jpg              	1	2	1	nma_mug04.jpg        	nonmovArt	4	mug       	26	mug04       	263	not_alive	0	still	0	artefact	0	n	1	0    	 	0.0	0	72.83777510000071	72.9376622000018	0.0998871000010694
112772	100	101	stimuli\nonmovArt\lock\nma_lock04.jpg            	1	2	1	nma_lock04.jpg       	nonmovArt	4	lock      	24	lock04      	243	not_alive	0	still	0	artefact	0	n	0	0    	 	0.0	0	72.98777170000179	73.08765380000109	0.0998820999993768
112922	100	102	stimuli\plant\vine\plant_vine06.jpg              	1	2	1	plant_vine06.jpg     	plant    	6	vine      	36	vine06      	365	alive    	1	still	0	natural 	1	n	0	1    	f	0.407445100001496	1	73.1377592999997	73.23767660000159	0.0999173000018345
113072	100	103	stimuli\nonmovNat\sand\nmn_sand02.jpg            	1	2	1	nmn_sand02.jpg       	nonmovNat	5	sand      	31	sand02      	311	not_alive	0	still	0	natural 	1	n	0	0    	 	0.0	0	73.28777640000041	73.3876625000012	0.0998861000007309
113222	100	104	stimuli\animals2\tiger\animal_tiger01.jpg        	1	2	1	animal_tiger01.jpg   	animals2 	1	tiger     	33	tiger01     	330	alive    	1	moves	1	natural 	1	n	0	0    	 	0.0	0	73.4377697000018	73.5376569	0.0998871999981929
113372	100	105	stimuli\movArt\car\ma_car02.jpg                  	1	2	1	ma_car02.jpg         	movArt   	2	car       	5	car02       	51	not_alive	0	moves	1	artefact	0	n	0	0    	 	0.0	0	73.58776550000042	73.68767020000091	0.0999047000004793
113522	100	106	stimuli\movArt\train\ma_train05.jpg              	1	2	1	ma_train05.jpg       	movArt   	2	train     	34	train05     	344	not_alive	0	moves	1	artefact	0	n	0	0    	 	0.0	0	73.7377549000011	73.8376955000022	0.0999406000009912
113672	100	107	stimuli\nonmovNat\cliff\nmn_cliff06.jpg          	1	2	1	nmn_cliff06.jpg      	nonmovNat	5	cliff     	7	cliff06     	75	not_alive	0	still	0	natural 	1	n	0	0    	 	0.0	0	73.8878015000009	73.98777619999959	0.0999746999987109
113822	100	108	stimuli\animals2\lemur\animal_lemur10.jpg        	1	2	1	animal_lemur10.jpg   	animals2 	1	lemur     	23	lemur10     	239	alive    	1	moves	1	natural 	1	n	0	0    	 	0.0	0	74.03782140000109	74.1376687000011	0.0998472999999648
113972	100	109	stimuli\plant2\clover\plant_clover06.jpg         	1	2	1	plant_clover06.jpg   	plant2   	7	clover    	9	clover06    	95	alive    	1	still	0	natural 	1	n	0	0    	 	0.0	0	74.18776699999941	74.28765330000171	0.0998863000022538
114122	100	110	stimuli\animals\eagle\animal_eagle09.jpg         	1	2	1	animal_eagle09.jpg   	animals  	0	eagle     	13	eagle09     	138	alive    	1	moves	1	natural 	1	n	0	0    	 	0.0	0	74.337718499999	74.4376613999993	0.0999429000003147
114272	100	111	stimuli\movArt\car\ma_car10.jpg                  	1	2	1	ma_car10.jpg         	movArt   	2	car       	5	car10       	59	not_alive	0	moves	1	artefact	0	n	0	0    	 	0.0	0	74.487757400002	74.58765860000129	0.0999011999992944
114422	100	112	stimuli\plant\grass\plant_grass05.jpg            	1	2	1	plant_grass05.jpg    	plant    	6	grass     	17	grass05     	174	alive    	1	still	0	natural 	1	n	0	0    	 	0.0	0	74.63774430000191	74.7376466999995	0.0999023999975179
114572	100	113	stimuli\movNat\fire\mn_fire07.jpg                	1	2	1	mn_fire07.jpg        	movNat   	3	fire      	15	fire07      	156	not_alive	0	moves	1	natural 	1	n	0	0    	 	0.0	0	74.7877528000026	74.8876349999991	0.0998821999965002
114722	100	114	stimuli\nonmovArt\clothespeg\nma_clothespeg01.jpg	1	2	1	nma_clothespeg01.jpg 	nonmovArt	4	clothespeg	8	clothespeg01	80	not_alive	0	still	0	artefact	0	n	0	0    	 	0.0	0	74.9377423000006	75.0376522000006	0.0999099000000569
114872	100	115	stimuli\nonmovArt\bench\nma_bench03.jpg          	1	2	1	nma_bench03.jpg      	nonmovArt	4	bench     	1	bench03     	12	not_alive	0	still	0	artefact	0	n	0	0    	 	0.0	0	75.08775950000201	75.18765909999999	0.0998995999980252
115022	100	116	stimuli\movNat\waves\mn_waves10.jpg              	1	2	1	mn_waves10.jpg       	movNat   	3	waves     	38	waves10     	389	not_alive	0	moves	1	natural 	1	n	0	0    	 	0.0	0	75.23775229999958	75.3376424000016	0.09989010000208501
115172	100	117	stimuli\nonmovNat\cliff\nmn_cliff04.jpg          	1	2	1	nmn_cliff04.jpg      	nonmovNat	5	cliff     	7	cliff04     	73	not_alive	0	still	0	natural 	1	n	0	0    	 	0.0	0	75.38774890000059	75.4876427000017	0.0998938000011548
115322	100	118	stimuli\plant\flower\plant_flower09.jpg          	1	2	1	plant_flower09.jpg   	plant    	6	flower    	16	flower09    	168	alive    	1	still	0	natural 	1	n	0	0    	 	0.0	0	75.5377397000011	75.63765620000049	0.0999164999993809
115472	100	119	stimuli\nonmovArt\bench\nma_bench08.jpg          	1	2	1	nma_bench08.jpg      	nonmovArt	4	bench     	1	bench08     	17	not_alive	0	still	0	artefact	0	n	0	0    	 	0.0	0	75.6878859000026	75.7877173000015	0.0998313999989477
115622	100	120	stimuli\plant\cactus\plant_cactus08.jpg          	1	2	1	plant_cactus08.jpg   	plant    	6	cactus    	4	cactus08    	47	alive    	1	still	0	natural 	1	n	0	0    	 	0.0	0	75.8377924000015	75.9376303000026	0.0998379000011482
115772	100	121	stimuli\plant\cactus\plant_cactus05.jpg          	1	2	1	plant_cactus05.jpg   	plant    	6	cactus    	4	cactus05    	44	alive    	1	still	0	natural 	1	n	0	0    	 	0.0	0	75.98774620000042	76.0876548000015	0.09990860000107199
115922	100	122	stimuli\movNat\hotspring\mn_hotspring05.jpg      	1	2	1	mn_hotspring05.jpg   	movNat   	3	hotspring 	21	hotspring05 	214	not_alive	0	moves	1	natural 	1	n	0	0    	 	0.0	0	76.1377334999997	76.23763770000009	0.09990420000031
116072	100	123	stimuli\plant2\moss\plant_moss04.jpg             	1	2	1	plant_moss04.jpg     	plant2   	7	moss      	25	moss04      	253	alive    	1	still	0	natural 	1	n	0	0    	 	0.0	0	76.2876953000014	76.38764409999929	0.0999487999979464
116222	100	124	stimuli\animals\dolphin\animal_dolphin04.jpg     	1	2	1	animal_dolphin04.jpg 	animals  	0	dolphin   	12	dolphin04   	123	alive    	1	moves	1	natural 	1	n	0	0    	 	0.0	0	76.437730900001	76.5376389000012	0.0999080000001413
116372	100	125	stimuli\movArt\train\ma_train04.jpg              	1	2	1	ma_train04.jpg       	movArt   	2	train     	34	train04     	343	not_alive	0	moves	1	artefact	0	n	0	0    	 	0.0	0	76.5877316000005	76.6876333	0.0999016999994637
116522	100	126	stimuli\plant\flower\plant_flower09.jpg          	1	2	1	plant_flower09.jpg   	plant    	6	flower    	16	flower09    	168	alive    	1	still	0	natural 	1	n	0	0    	 	0.0	0	76.73772490000191	76.83763320000071	0.0999082999987877
116672	100	127	stimuli\nonmovNat\shell\nmn_shell05.jpg          	1	2	1	nmn_shell05.jpg      	nonmovNat	5	shell     	32	shell05     	324	not_alive	0	still	0	natural 	1	n	0	0    	 	0.0	0	76.88772830000009	76.9876318000024	0.0999035000022559
116822	100	128	stimuli\nonmovArt\clothespeg\nma_clothespeg03.jpg	1	2	1	nma_clothespeg03.jpg 	nonmovArt	4	clothespeg	8	clothespeg03	82	not_alive	0	still	0	artefact	0	n	0	0    	 	0.0	0	77.0377609000025	77.137606799999	0.0998458999965805
116972	100	129	stimuli\movArt\helicopter\ma_helicopter03.jpg    	1	2	1	ma_helicopter03.jpg  	movArt   	2	helicopter	19	helicopter03	192	not_alive	0	moves	1	artefact	0	n	0	0    	 	0.0	0	77.18772030000041	77.28763629999959	0.0999159999992116
117122	100	130	stimuli\nonmovNat\sand\nmn_sand07.jpg            	1	2	1	nmn_sand07.jpg       	nonmovNat	5	sand      	31	sand07      	316	not_alive	0	still	0	natural 	1	n	0	0    	 	0.0	0	77.3376987000011	77.4376169000025	0.0999182000014116
117272	100	131	stimuli\plant2\palmtree\plant_palmtree04.jpg     	1	2	1	plant_palmtree04.jpg 	plant2   	7	palmtree  	27	palmtree04  	273	alive    	1	still	0	natural 	1	n	0	0    	 	0.0	0	77.4878867000007	77.5877185999998	0.099831899999117
117422	100	132	stimuli\nonmovNat\sand\nmn_sand08.jpg            	1	2	1	nmn_sand08.jpg       	nonmovNat	5	sand      	31	sand08      	317	not_alive	0	still	0	natural 	1	n	0	0    	 	0.0	0	77.6377213000014	77.7376111000012	0.0998897999998007
117572	100	133	stimuli\animals2\tiger\animal_tiger04.jpg        	1	2	1	animal_tiger04.jpg   	animals2 	1	tiger     	33	tiger04     	333	alive    	1	moves	1	natural 	1	n	0	0    	 	0.0	0	77.7877316000013	77.887631900001	0.0999002999997174
117722	100	134	stimuli\movNat\fire\mn_fire03.jpg                	1	2	1	mn_fire03.jpg        	movNat   	3	fire      	15	fire03      	152	not_alive	0	moves	1	natural 	1	n	0	0    	 	0.0	0	77.93758440000241	78.0376161000022	0.10003169999981801
117872	100	135	stimuli\movNat\waves\mn_waves04.jpg              	1	2	1	mn_waves04.jpg       	movNat   	3	waves     	38	waves04     	383	not_alive	0	moves	1	natural 	1	n	0	0    	 	0.0	0	78.0877204000026	78.1876138000007	0.099893399998109
118022	100	136	stimuli\plant2\fern\plant_fern01.jpg             	1	2	1	plant_fern01.jpg     	plant2   	7	fern      	14	fern01      	140	alive    	1	still	0	natural 	1	n	0	0    	 	0.0	0	78.23771119999951	78.337586900001	0.0998757000015757
118172	100	137	stimuli\animals2\lemur\animal_lemur07.jpg        	1	2	1	animal_lemur07.jpg   	animals2 	1	lemur     	23	lemur07     	236	alive    	1	moves	1	natural 	1	n	0	0    	 	0.0	0	78.3877171999993	78.4876193000018	0.0999021000025095
118322	100	138	stimuli\animals\eagle\animal_eagle01.jpg         	1	2	1	animal_eagle01.jpg   	animals  	0	eagle     	13	eagle01     	130	alive    	1	moves	1	natural 	1	n	0	0    	 	0.0	0	78.53782890000001	78.6376167000017	0.0997878000016498
118472	100	139	stimuli\animals\eagle\animal_eagle10.jpg         	1	2	1	animal_eagle10.jpg   	animals  	0	eagle     	13	eagle10     	139	alive    	1	moves	1	natural 	1	n	1	0    	 	0.0	0	78.68771030000059	78.7876214999997	0.0999111999990418
118622	100	140	stimuli\animals2\bee\animal_bee03.jpg            	1	2	1	animal_bee03.jpg     	animals2 	1	bee       	0	bee03       	2	alive    	1	moves	1	natural 	1	n	0	0    	 	0.0	0	78.8377172	78.9376011000022	0.0998839000021689
118772	100	141	stimuli\movNat\river\mn_river01.jpg              	1	2	1	mn_river01.jpg       	movNat   	3	river     	29	river01     	290	not_alive	0	moves	1	natural 	1	n	0	1    	f	0.39200390000041796	1	78.9877124000013	79.0876142000015	0.0999018000002252
118922	100	142	stimuli\plant\vine\plant_vine10.jpg              	1	2	1	plant_vine10.jpg     	plant    	6	vine      	36	vine10      	369	alive    	1	still	0	natural 	1	n	0	0    	 	0.0	0	79.13771600000109	79.2376189999995	0.0999029999984486
119072	100	143	stimuli\movNat\river\mn_river02.jpg              	1	2	1	mn_river02.jpg       	movNat   	3	river     	29	river02     	291	not_alive	0	moves	1	natural 	1	n	0	0    	 	0.0	0	79.2878090000013	79.3875990000015	0.0997900000002118
119222	100	144	stimuli\movArt\boat\ma_boat04.jpg                	1	2	1	ma_boat04.jpg        	movArt   	2	boat      	2	boat04      	23	not_alive	0	moves	1	artefact	0	n	1	0    	 	0.0	0	79.4377139999997	79.5376093000013	0.0998953000016626
119372	100	145	stimuli\movNat\waterfall\mn_waterfall04.jpg      	1	2	1	mn_waterfall04.jpg   	movNat   	3	waterfall 	37	waterfall04 	373	not_alive	0	moves	1	natural 	1	n	0	0    	 	0.0	0	79.5876998000022	79.6876131999998	0.0999133999976038
119522	100	146	stimuli\nonmovNat\cliff\nmn_cliff03.jpg          	1	2	1	nmn_cliff03.jpg      	nonmovNat	5	cliff     	7	cliff03     	72	not_alive	0	still	0	natural 	1	n	0	1    	f	0.39197240000066796	1	79.7376965000003	79.8375988000007	0.0999023000003944
119672	100	147	stimuli\nonmovArt\mug\nma_mug07.jpg              	1	2	1	nma_mug07.jpg        	nonmovArt	4	mug       	26	mug07       	266	not_alive	0	still	0	artefact	0	n	0	0    	 	0.0	0	79.88769350000081	79.98759240000071	0.099898899999971
119822	100	148	stimuli\plant2\palmtree\plant_palmtree08.jpg     	1	2	1	plant_palmtree08.jpg 	plant2   	7	palmtree  	27	palmtree08  	277	alive    	1	still	0	natural 	1	n	0	0    	 	0.0	0	80.03773270000241	80.1377558000022	0.100023099999817
119972	100	149	stimuli\animals\cat\animal_cat04.jpg             	1	2	1	animal_cat04.jpg     	animals  	0	cat       	6	cat04       	63	alive    	1	moves	1	natural 	1	n	0	0    	 	0.0	0	80.1877636999998	80.2876077000001	0.0998440000003029
120122	100	150	stimuli\plant\tree\plant_tree04.jpg              	1	2	1	plant_tree04.jpg     	plant    	6	tree      	35	tree04      	353	alive    	1	still	0	natural 	1	n	0	0    	 	0.0	0	80.3376853000009	80.43756679999929	0.09988149999844599
120272	100	151	stimuli\movArt\bus\ma_bus09.jpg                  	1	2	1	ma_bus09.jpg         	movArt   	2	bus       	3	bus09       	38	not_alive	0	moves	1	artefact	0	n	0	0    	 	0.0	0	80.48768589999959	80.587602399999	0.0999164999993809
120422	100	152	stimuli\nonmovNat\crystal\nmn_crystal01.jpg      	1	2	1	nmn_crystal01.jpg    	nonmovNat	5	crystal   	10	crystal01   	100	not_alive	0	still	0	natural 	1	n	0	0    	 	0.0	0	80.6376808000023	80.73759110000171	0.0999102999994647
120572	100	153	stimuli\movNat\waterfall\mn_waterfall01.jpg      	1	2	1	mn_waterfall01.jpg   	movNat   	3	waterfall 	37	waterfall01 	370	not_alive	0	moves	1	natural 	1	n	0	0    	 	0.0	0	80.7876873000023	80.88760919999909	0.0999218999968434
120722	100	154	stimuli\animals2\whale\animal_whale04.jpg        	1	2	1	animal_whale04.jpg   	animals2 	1	whale     	39	whale04     	393	alive    	1	moves	1	natural 	1	n	0	0    	 	0.0	0	80.9376923000018	81.03760490000059	0.0999125999987882
120872	100	155	stimuli\movNat\river\mn_river05.jpg              	1	2	1	mn_river05.jpg       	movNat   	3	river     	29	river05     	294	not_alive	0	moves	1	natural 	1	n	0	0    	 	0.0	0	81.0877827000004	81.1876167000009	0.0998340000005555
121022	100	156	stimuli\nonmovArt\lock\nma_lock07.jpg            	1	2	1	nma_lock07.jpg       	nonmovArt	4	lock      	24	lock07      	246	not_alive	0	still	0	artefact	0	n	0	0    	 	0.0	0	81.2376719000022	81.337591200001	0.0999192999988736
121172	100	157	stimuli\movArt\bus\ma_bus07.jpg                  	1	2	1	ma_bus07.jpg         	movArt   	2	bus       	3	bus07       	36	not_alive	0	moves	1	artefact	0	n	0	0    	 	0.0	0	81.38769669999971	81.4875744000019	0.0998777000022528
121322	100	158	stimuli\nonmovNat\shell\nmn_shell07.jpg          	1	2	1	nmn_shell07.jpg      	nonmovNat	5	shell     	32	shell07     	326	not_alive	0	still	0	natural 	1	n	0	0    	 	0.0	0	81.5376829000015	81.6375810999998	0.0998981999982788
121472	100	159	stimuli\movNat\waterfall\mn_waterfall08.jpg      	1	2	1	mn_waterfall08.jpg   	movNat   	3	waterfall 	37	waterfall08 	377	not_alive	0	moves	1	natural 	1	n	0	0    	 	0.0	0	81.68765820000041	81.78758089999971	0.099922699999297
133939	100	160	stimuli\animals\horse\animal_horse02.jpg         	1	3	1	animal_horse02.jpg   	animals  	0	horse     	20	horse02     	201	alive    	1	moves	1	natural 	1	n	0	0    	 	0.0	0	94.1542268000012	94.2541133000013	0.0998865000001387
134089	100	161	stimuli\nonmovArt\mug\nma_mug07.jpg              	1	3	1	nma_mug07.jpg        	nonmovArt	4	mug       	26	mug07       	266	not_alive	0	still	0	artefact	0	n	0	0    	 	0.0	0	94.30421990000099	94.4041252999996	0.0999053999985335
134239	100	162	stimuli\plant2\fern\plant_fern04.jpg             	1	3	1	plant_fern04.jpg     	plant2   	7	fern      	14	fern04      	143	alive    	1	still	0	natural 	1	n	0	0    	 	0.0	0	94.4542020000008	94.55411480000109	0.0999128000003111
134389	100	163	stimuli\nonmovNat\cliff\nmn_cliff05.jpg          	1	3	1	nmn_cliff05.jpg      	nonmovNat	5	cliff     	7	cliff05     	74	not_alive	0	still	0	natural 	1	n	0	0    	 	0.0	0	94.6042240999996	94.7041147000018	0.0998906000022543
134539	100	164	stimuli\plant2\clover\plant_clover05.jpg         	1	3	1	plant_clover05.jpg   	plant2   	7	clover    	9	clover05    	94	alive    	1	still	0	natural 	1	n	0	0    	 	0.0	0	94.7542099999992	94.85410410000259	0.0998941000034392
134689	100	165	stimuli\nonmovNat\crystal\nmn_crystal10.jpg      	1	3	1	nmn_crystal10.jpg    	nonmovNat	5	crystal   	10	crystal10   	109	not_alive	0	still	0	natural 	1	n	0	0    	 	0.0	0	94.9042208999999	95.004108000001	0.0998871000010694
134839	100	166	stimuli\animals\cat\animal_cat05.jpg             	1	3	1	animal_cat05.jpg     	animals  	0	cat       	6	cat05       	64	alive    	1	moves	1	natural 	1	n	0	0    	 	0.0	0	95.0541999000016	95.1540959000013	0.0998959999997168
134989	100	167	stimuli\movArt\boat\ma_boat08.jpg                	1	3	1	ma_boat08.jpg        	movArt   	2	boat      	2	boat08      	27	not_alive	0	moves	1	artefact	0	n	0	0    	 	0.0	0	95.20419190000031	95.3041252000003	0.0999332999999751
135139	100	168	stimuli\nonmovNat\crystal\nmn_crystal04.jpg      	1	3	1	nmn_crystal04.jpg    	nonmovNat	5	crystal   	10	crystal04   	103	not_alive	0	still	0	natural 	1	n	0	0    	 	0.0	0	95.354292	95.45412829999991	0.0998362999998789
135289	100	169	stimuli\plant2\palmtree\plant_palmtree06.jpg     	1	3	1	plant_palmtree06.jpg 	plant2   	7	palmtree  	27	palmtree06  	275	alive    	1	still	0	natural 	1	n	0	0    	 	0.0	0	95.5041982000002	95.6041005000006	0.0999023000003944
135439	100	170	stimuli\plant2\clover\plant_clover05.jpg         	1	3	1	plant_clover05.jpg   	plant2   	7	clover    	9	clover05    	94	alive    	1	still	0	natural 	1	n	0	0    	 	0.0	0	95.6541978000023	95.75413100000151	0.0999331999992136
135589	100	171	stimuli\nonmovArt\mug\nma_mug06.jpg              	1	3	1	nma_mug06.jpg        	nonmovArt	4	mug       	26	mug06       	265	not_alive	0	still	0	artefact	0	n	0	0    	 	0.0	0	95.8041841000013	95.9041011000008	0.0999169999995501
135739	100	172	stimuli\plant\flower\plant_flower08.jpg          	1	3	1	plant_flower08.jpg   	plant    	6	flower    	16	flower08    	167	alive    	1	still	0	natural 	1	n	0	0    	 	0.0	0	95.9542046000024	96.05411079999979	0.0999061999973491
135889	100	173	stimuli\animals2\lemur\animal_lemur01.jpg        	1	3	1	animal_lemur01.jpg   	animals2 	1	lemur     	23	lemur01     	230	alive    	1	moves	1	natural 	1	n	0	0    	 	0.0	0	96.10418740000021	96.2040968000001	0.0999093999998876
136039	100	174	stimuli\plant2\lemontree\plant_lemontree05.jpg   	1	3	1	plant_lemontree05.jpg	plant2   	7	lemontree 	22	lemontree05 	224	alive    	1	still	0	natural 	1	n	0	0    	 	0.0	0	96.2541885999999	96.35408160000222	0.0998930000023392
136189	100	175	stimuli\nonmovArt\bench\nma_bench09.jpg          	1	3	1	nma_bench09.jpg      	nonmovArt	4	bench     	1	bench09     	18	not_alive	0	still	0	artefact	0	n	0	0    	 	0.0	0	96.4041899000004	96.5040988000001	0.0999088999997184
136339	100	176	stimuli\animals\dolphin\animal_dolphin10.jpg     	1	3	1	animal_dolphin10.jpg 	animals  	0	dolphin   	12	dolphin10   	129	alive    	1	moves	1	natural 	1	n	0	0    	 	0.0	0	96.5541961000017	96.6541061000026	0.0999100000008184
136489	100	177	stimuli\animals2\pigeon\animal_pigeon09.jpg      	1	3	1	animal_pigeon09.jpg  	animals2 	1	pigeon    	28	pigeon09    	288	alive    	1	moves	1	natural 	1	n	0	0    	 	0.0	0	96.7041850999994	96.80409960000179	0.0999145000023418
136639	100	178	stimuli\animals2\tiger\animal_tiger03.jpg        	1	3	1	animal_tiger03.jpg   	animals2 	1	tiger     	33	tiger03     	332	alive    	1	moves	1	natural 	1	n	0	0    	 	0.0	0	96.85417539999979	96.9540901	0.0999147000002267
136789	100	179	stimuli\animals2\whale\animal_whale08.jpg        	1	3	1	animal_whale08.jpg   	animals2 	1	whale     	39	whale08     	397	alive    	1	moves	1	natural 	1	n	0	0    	 	0.0	0	97.0042051000018	97.1042135000025	0.100008400000661
136939	100	180	stimuli\plant\tree\plant_tree02.jpg              	1	3	1	plant_tree02.jpg     	plant    	6	tree      	35	tree02      	351	alive    	1	still	0	natural 	1	n	0	0    	 	0.0	0	97.15430030000059	97.2540922000007	0.0997919000001275
137089	100	181	stimuli\plant2\moss\plant_moss08.jpg             	1	3	1	plant_moss08.jpg     	plant2   	7	moss      	25	moss08      	257	alive    	1	still	0	natural 	1	n	0	0    	 	0.0	0	97.30419080000141	97.4040946999994	0.0999038999980257
137239	100	182	stimuli\plant\grass\plant_grass01.jpg            	1	3	1	plant_grass01.jpg    	plant    	6	grass     	17	grass01     	170	alive    	1	still	0	natural 	1	n	0	0    	 	0.0	0	97.4541907999992	97.55409950000099	0.0999087000018335
137389	100	183	stimuli\animals\horse\animal_horse02.jpg         	1	3	1	animal_horse02.jpg   	animals  	0	horse     	20	horse02     	201	alive    	1	moves	1	natural 	1	n	0	0    	 	0.0	0	97.60417869999951	97.7040852999999	0.0999066000003949
137539	100	184	stimuli\plant\flower\plant_flower09.jpg          	1	3	1	plant_flower09.jpg   	plant    	6	flower    	16	flower09    	168	alive    	1	still	0	natural 	1	n	0	0    	 	0.0	0	97.7541643000004	97.85408839999941	0.0999240999990434
137689	100	185	stimuli\plant\vine\plant_vine07.jpg              	1	3	1	plant_vine07.jpg     	plant    	6	vine      	36	vine07      	366	alive    	1	still	0	natural 	1	n	0	0    	 	0.0	0	97.9041830999995	98.00407120000092	0.099888100001408
137839	100	186	stimuli\plant\cactus\plant_cactus02.jpg          	1	3	1	plant_cactus02.jpg   	plant    	6	cactus    	4	cactus02    	41	alive    	1	still	0	natural 	1	n	0	1    	f	0.0	0	98.0541618999996	98.15408570000001	0.09992380000039698
137989	100	187	stimuli\movNat\waves\mn_waves03.jpg              	1	3	1	mn_waves03.jpg       	movNat   	3	waves     	38	waves03     	382	not_alive	0	moves	1	natural 	1	n	0	0    	 	0.0	0	98.20416730000221	98.30408359999998	0.0999162999978579
138139	100	188	stimuli\plant\grass\plant_grass03.jpg            	1	3	1	plant_grass03.jpg    	plant    	6	grass     	17	grass03     	172	alive    	1	still	0	natural 	1	n	0	0    	 	0.0	0	98.35417880000021	98.45407759999941	0.0998987999992096
138289	100	189	stimuli\movArt\bus\ma_bus05.jpg                  	1	3	1	ma_bus05.jpg         	movArt   	2	bus       	3	bus05       	34	not_alive	0	moves	1	artefact	0	n	0	0    	 	0.0	0	98.50416469999979	98.60409229999999	0.0999276000002282
138439	100	190	stimuli\movNat\hotspring\mn_hotspring04.jpg      	1	3	1	mn_hotspring04.jpg   	movNat   	3	hotspring 	21	hotspring04 	213	not_alive	0	moves	1	natural 	1	n	0	0    	 	0.0	0	98.6541834000018	98.7540780000018	0.0998945999999705
138589	100	191	stimuli\plant2\fern\plant_fern01.jpg             	1	3	1	plant_fern01.jpg     	plant2   	7	fern      	14	fern01      	140	alive    	1	still	0	natural 	1	n	0	0    	 	0.0	0	98.80417510000191	98.9040667000008	0.0998915999989549
138739	100	192	stimuli\animals2\whale\animal_whale03.jpg        	1	3	1	animal_whale03.jpg   	animals2 	1	whale     	39	whale03     	392	alive    	1	moves	1	natural 	1	n	0	0    	 	0.0	0	98.9542598000007	99.05427530000091	0.10001550000015401
138889	100	193	stimuli\movArt\helicopter\ma_helicopter07.jpg    	1	3	1	ma_helicopter07.jpg  	movArt   	2	helicopter	19	helicopter07	196	not_alive	0	moves	1	artefact	0	n	0	0    	 	0.0	0	99.1041724000024	99.20405939999908	0.09988699999667
139039	100	194	stimuli\movArt\train\ma_train10.jpg              	1	3	1	ma_train10.jpg       	movArt   	2	train     	34	train10     	349	not_alive	0	moves	1	artefact	0	n	0	0    	 	0.0	0	99.2541597000018	99.3540809000006	0.0999211999987892
139189	100	195	stimuli\nonmovNat\cliff\nmn_cliff05.jpg          	1	3	1	nmn_cliff05.jpg      	nonmovNat	5	cliff     	7	cliff05     	74	not_alive	0	still	0	natural 	1	n	0	0    	 	0.0	0	99.4041739000022	99.50407059999999	0.099896699997771
139339	100	196	stimuli\animals\dog\animal_dog03.jpg             	1	3	1	animal_dog03.jpg     	animals  	0	dog       	11	dog03       	112	alive    	1	moves	1	natural 	1	n	0	0    	 	0.0	0	99.5541704000025	99.65406609999991	0.0998956999974325
139489	100	197	stimuli\nonmovNat\rock\nmn_rock04.jpg            	1	3	1	nmn_rock04.jpg       	nonmovNat	5	rock      	30	rock04      	303	not_alive	0	still	0	natural 	1	n	0	0    	 	0.0	0	99.70420519999969	99.8040710000023	0.0998658000025898
139639	100	198	stimuli\movArt\helicopter\ma_helicopter01.jpg    	1	3	1	ma_helicopter01.jpg  	movArt   	2	helicopter	19	helicopter01	190	not_alive	0	moves	1	artefact	0	n	0	0    	 	0.0	0	99.8541509999996	99.9540538000001	0.0999028000005637
139789	100	199	stimuli\plant\vine\plant_vine01.jpg              	1	3	1	plant_vine01.jpg     	plant    	6	vine      	36	vine01      	360	alive    	1	still	0	natural 	1	n	0	0    	 	0.0	0	100.00414910000099	100.10403100000299	0.0998819000014918
139939	100	200	stimuli\nonmovArt\clothespeg\nma_clothespeg06.jpg	1	3	1	nma_clothespeg06.jpg 	nonmovArt	4	clothespeg	8	clothespeg06	85	not_alive	0	still	0	artefact	0	n	0	0    	 	0.0	0	100.154138800001	100.254066600002	0.0999278000017511
140089	100	201	stimuli\movNat\hotspring\mn_hotspring01.jpg      	1	3	1	mn_hotspring01.jpg   	movNat   	3	hotspring 	21	hotspring01 	210	not_alive	0	moves	1	natural 	1	n	0	0    	 	0.0	0	100.3041533	100.404050100002	0.0998968000021705
140239	100	202	stimuli\plant2\moss\plant_moss05.jpg             	1	3	1	plant_moss05.jpg     	plant2   	7	moss      	25	moss05      	254	alive    	1	still	0	natural 	1	n	0	0    	 	0.0	0	100.45416499999901	100.554063700001	0.0998987000020861
140389	100	203	stimuli\animals\dog\animal_dog07.jpg             	1	3	1	animal_dog07.jpg     	animals  	0	dog       	11	dog07       	116	alive    	1	moves	1	natural 	1	n	0	0    	 	0.0	0	100.604145500001	100.70407210000099	0.0999265999998897
140539	100	204	stimuli\animals\cat\animal_cat06.jpg             	1	3	1	animal_cat06.jpg     	animals  	0	cat       	6	cat06       	65	alive    	1	moves	1	natural 	1	n	0	0    	 	0.0	0	100.7542512	100.8540627	0.0998115000002144
140689	100	205	stimuli\movNat\fire\mn_fire02.jpg                	1	3	1	mn_fire02.jpg        	movNat   	3	fire      	15	fire02      	151	not_alive	0	moves	1	natural 	1	n	0	0    	 	0.0	0	100.904133300002	101.00404830000099	0.0999149999988731
140839	100	206	stimuli\animals2\lemur\animal_lemur01.jpg        	1	3	1	animal_lemur01.jpg   	animals2 	1	lemur     	23	lemur01     	230	alive    	1	moves	1	natural 	1	n	0	0    	 	0.0	0	101.054064600001	101.154081799999	0.10001719999854698
140989	100	207	stimuli\nonmovArt\lock\nma_lock05.jpg            	1	3	1	nma_lock05.jpg       	nonmovArt	4	lock      	24	lock05      	244	not_alive	0	still	0	artefact	0	n	0	0    	 	0.0	0	101.204142099999	101.304084400002	0.0999423000030219
141139	100	208	stimuli\nonmovArt\bench\nma_bench06.jpg          	1	3	1	nma_bench06.jpg      	nonmovArt	4	bench     	1	bench06     	15	not_alive	0	still	0	artefact	0	n	1	0    	 	0.0	0	101.35415350000001	101.454051700002	0.0998982000019168
141289	100	209	stimuli\plant\grass\plant_grass09.jpg            	1	3	1	plant_grass09.jpg    	plant    	6	grass     	17	grass09     	178	alive    	1	still	0	natural 	1	n	0	0    	 	0.0	0	101.50416459999902	101.60405539999901	0.0998908000001392
141439	100	210	stimuli\movNat\fire\mn_fire09.jpg                	1	3	1	mn_fire09.jpg        	movNat   	3	fire      	15	fire09      	158	not_alive	0	moves	1	natural 	1	n	0	1    	f	0.392003400000249	1	101.65416850000099	101.75405400000099	0.0998854999998002
141589	100	211	stimuli\movNat\waves\mn_waves01.jpg              	1	3	1	mn_waves01.jpg       	movNat   	3	waves     	38	waves01     	380	not_alive	0	moves	1	natural 	1	n	0	0    	 	0.0	0	101.804141799999	101.9040475	0.0999057000008178
141739	100	212	stimuli\nonmovNat\rock\nmn_rock01.jpg            	1	3	1	nmn_rock01.jpg       	nonmovNat	5	rock      	30	rock01      	300	not_alive	0	still	0	natural 	1	n	0	0    	 	0.0	0	101.95416309999901	102.054064	0.0999009000006481
141889	100	213	stimuli\plant2\lemontree\plant_lemontree10.jpg   	1	3	1	plant_lemontree10.jpg	plant2   	7	lemontree 	22	lemontree10 	229	alive    	1	still	0	natural 	1	n	0	0    	 	0.0	0	102.104169500002	102.2040495	0.0998799999979382
142039	100	214	stimuli\animals\dolphin\animal_dolphin04.jpg     	1	3	1	animal_dolphin04.jpg 	animals  	0	dolphin   	12	dolphin04   	123	alive    	1	moves	1	natural 	1	n	0	0    	 	0.0	0	102.254140200002	102.3540785	0.0999382999980298
142189	100	215	stimuli\nonmovArt\headphones\nma_headphones04.jpg	1	3	1	nma_headphones04.jpg 	nonmovArt	4	headphones	18	headphones04	183	not_alive	0	still	0	artefact	0	n	0	0    	 	0.0	0	102.404134	102.504234	0.10009999999965699
142339	100	216	stimuli\plant2\clover\plant_clover09.jpg         	1	3	1	plant_clover09.jpg   	plant2   	7	clover    	9	clover09    	98	alive    	1	still	0	natural 	1	n	0	0    	 	0.0	0	102.55427809999999	102.65404699999999	0.0997688999996171
142489	100	217	stimuli\nonmovArt\headphones\nma_headphones01.jpg	1	3	1	nma_headphones01.jpg 	nonmovArt	4	headphones	18	headphones01	180	not_alive	0	still	0	artefact	0	n	0	0    	 	0.0	0	102.704147700002	102.8040468	0.0998990999978559
142639	100	218	stimuli\nonmovArt\clothespeg\nma_clothespeg02.jpg	1	3	1	nma_clothespeg02.jpg 	nonmovArt	4	clothespeg	8	clothespeg02	81	not_alive	0	still	0	artefact	0	n	0	0    	 	0.0	0	102.854164200002	102.954037700001	0.0998734999993757
142789	100	219	stimuli\movArt\boat\ma_boat05.jpg                	1	3	1	ma_boat05.jpg        	movArt   	2	boat      	2	boat05      	24	not_alive	0	moves	1	artefact	0	n	0	0    	 	0.0	0	103.0041418	103.10404650000099	0.0999047000004793
142939	100	220	stimuli\movArt\car\ma_car07.jpg                  	1	3	1	ma_car07.jpg         	movArt   	2	car       	5	car07       	56	not_alive	0	moves	1	artefact	0	n	0	0    	 	0.0	0	103.154134700002	103.2540353	0.0999005999983637
143089	100	221	stimuli\nonmovNat\shell\nmn_shell09.jpg          	1	3	1	nmn_shell09.jpg      	nonmovNat	5	shell     	32	shell09     	328	not_alive	0	still	0	natural 	1	n	0	0    	 	0.0	0	103.30414520000001	103.404038299999	0.0998930999994627
143239	100	222	stimuli\animals2\bee\animal_bee02.jpg            	1	3	1	animal_bee02.jpg     	animals2 	1	bee       	0	bee02       	1	alive    	1	moves	1	natural 	1	n	1	0    	 	0.0	0	103.454150199999	103.55403130000201	0.0998811000026762
143389	100	223	stimuli\movArt\car\ma_car07.jpg                  	1	3	1	ma_car07.jpg         	movArt   	2	car       	5	car07       	56	not_alive	0	moves	1	artefact	0	n	0	0    	 	0.0	0	103.604125900001	103.704051700002	0.0999258000010741
143539	100	224	stimuli\nonmovArt\lock\nma_lock07.jpg            	1	3	1	nma_lock07.jpg       	nonmovArt	4	lock      	24	lock07      	246	not_alive	0	still	0	artefact	0	n	0	1    	f	0.39194580000184903	1	103.7541141	103.854033800002	0.0999197000019194
143689	100	225	stimuli\animals2\pigeon\animal_pigeon05.jpg      	1	3	1	animal_pigeon05.jpg  	animals2 	1	pigeon    	28	pigeon05    	284	alive    	1	moves	1	natural 	1	n	0	0    	 	0.0	0	103.9041225	104.0040252	0.0999026999998022
143839	100	226	stimuli\plant\tree\plant_tree10.jpg              	1	3	1	plant_tree10.jpg     	plant    	6	tree      	35	tree10      	359	alive    	1	still	0	natural 	1	n	0	0    	 	0.0	0	104.054151100001	104.154063599999	0.0999124999980267
143989	100	227	stimuli\animals\horse\animal_horse07.jpg         	1	3	1	animal_horse07.jpg   	animals  	0	horse     	20	horse07     	206	alive    	1	moves	1	natural 	1	n	0	0    	 	0.0	0	104.20423510000201	104.30412649999901	0.09989139999743199
144139	100	228	stimuli\movArt\train\ma_train05.jpg              	1	3	1	ma_train05.jpg       	movArt   	2	train     	34	train05     	344	not_alive	0	moves	1	artefact	0	n	0	0    	 	0.0	0	104.354225999999	104.45402280000098	0.0997968000010587
144289	100	229	stimuli\movArt\car\ma_car06.jpg                  	1	3	1	ma_car06.jpg         	movArt   	2	car       	5	car06       	55	not_alive	0	moves	1	artefact	0	n	0	0    	 	0.0	0	104.504123800001	104.604043400002	0.0999196000011579
144439	100	230	stimuli\nonmovArt\headphones\nma_headphones02.jpg	1	3	1	nma_headphones02.jpg 	nonmovArt	4	headphones	18	headphones02	181	not_alive	0	still	0	artefact	0	n	0	0    	 	0.0	0	104.654119400002	104.754026000002	0.0999066000003949
144589	100	231	stimuli\nonmovArt\bench\nma_bench01.jpg          	1	3	1	nma_bench01.jpg      	nonmovArt	4	bench     	1	bench01     	10	not_alive	0	still	0	artefact	0	n	0	0    	 	0.0	0	104.804092400002	104.90400600000099	0.0999135999991267
144739	100	232	stimuli\nonmovNat\sand\nmn_sand08.jpg            	1	3	1	nmn_sand08.jpg       	nonmovNat	5	sand      	31	sand08      	317	not_alive	0	still	0	natural 	1	n	0	0    	 	0.0	0	104.95410700000099	105.054027800001	0.0999207999993814
144889	100	233	stimuli\animals2\tiger\animal_tiger05.jpg        	1	3	1	animal_tiger05.jpg   	animals2 	1	tiger     	33	tiger05     	334	alive    	1	moves	1	natural 	1	n	0	0    	 	0.0	0	105.10414400000099	105.2040332	0.09988919999886998
145039	100	234	stimuli\animals2\bee\animal_bee10.jpg            	1	3	1	animal_bee10.jpg     	animals2 	1	bee       	0	bee10       	9	alive    	1	moves	1	natural 	1	n	0	0    	 	0.0	0	105.254092499999	105.354027000001	0.0999345000018365
145189	100	235	stimuli\animals2\pigeon\animal_pigeon09.jpg      	1	3	1	animal_pigeon09.jpg  	animals2 	1	pigeon    	28	pigeon09    	288	alive    	1	moves	1	natural 	1	n	0	0    	 	0.0	0	105.404122300002	105.504023600002	0.0999013000000559
145339	100	236	stimuli\animals\dog\animal_dog09.jpg             	1	3	1	animal_dog09.jpg     	animals  	0	dog       	11	dog09       	118	alive    	1	moves	1	natural 	1	n	0	0    	 	0.0	0	105.554119200002	105.654006600002	0.0998873999997158
145489	100	237	stimuli\plant2\lemontree\plant_lemontree05.jpg   	1	3	1	plant_lemontree05.jpg	plant2   	7	lemontree 	22	lemontree05 	224	alive    	1	still	0	natural 	1	n	0	0    	 	0.0	0	105.70413530000201	105.804027099999	0.0998917999968398
145639	100	238	stimuli\nonmovNat\rock\nmn_rock09.jpg            	1	3	1	nmn_rock09.jpg       	nonmovNat	5	rock      	30	rock09      	308	not_alive	0	still	0	natural 	1	n	0	0    	 	0.0	0	105.85410260000201	105.9539659	0.0998632999981055
145789	100	239	stimuli\animals\eagle\animal_eagle08.jpg         	1	3	1	animal_eagle08.jpg   	animals  	0	eagle     	13	eagle08     	137	alive    	1	moves	1	natural 	1	n	0	0    	 	0.0	0	106.004332299999	106.1041018	0.0997695000005478
153304	100	240	stimuli\movNat\river\mn_river01.jpg              	1	4	1	mn_river01.jpg       	movNat   	3	river     	29	river01     	290	not_alive	0	moves	1	natural 	1	n	0	0    	 	0.0	0	113.5198332	113.61982060000099	0.0999874000008276
153454	100	241	stimuli\animals2\tiger\animal_tiger10.jpg        	1	4	1	animal_tiger10.jpg   	animals2 	1	tiger     	33	tiger10     	339	alive    	1	moves	1	natural 	1	n	0	0    	 	0.0	0	113.669839400001	113.76981570000099	0.0999762999999802
153604	100	242	stimuli\plant\cactus\plant_cactus06.jpg          	1	4	1	plant_cactus06.jpg   	plant    	6	cactus    	4	cactus06    	45	alive    	1	still	0	natural 	1	n	0	0    	 	0.0	0	113.819827300002	113.9198129	0.0999855999980354
153754	100	243	stimuli\animals\horse\animal_horse01.jpg         	1	4	1	animal_horse01.jpg   	animals  	0	horse     	20	horse01     	200	alive    	1	moves	1	natural 	1	n	0	0    	 	0.0	0	113.969825	114.069813400001	0.0999884000011661
153904	100	244	stimuli\movNat\waterfall\mn_waterfall10.jpg      	1	4	1	mn_waterfall10.jpg   	movNat   	3	waterfall 	37	waterfall10 	379	not_alive	0	moves	1	natural 	1	n	0	0    	 	0.0	0	114.11982360000201	114.21981270000099	0.0999890999992203
154054	100	245	stimuli\nonmovArt\bench\nma_bench06.jpg          	1	4	1	nma_bench06.jpg      	nonmovArt	4	bench     	1	bench06     	15	not_alive	0	still	0	artefact	0	n	0	0    	 	0.0	0	114.269821100002	114.369811700002	0.0999905999997281
154204	100	246	stimuli\animals\eagle\animal_eagle05.jpg         	1	4	1	animal_eagle05.jpg   	animals  	0	eagle     	13	eagle05     	134	alive    	1	moves	1	natural 	1	n	0	0    	 	0.0	0	114.41982030000099	114.5198098	0.0999894999986281
154354	100	247	stimuli\animals\dog\animal_dog10.jpg             	1	4	1	animal_dog10.jpg     	animals  	0	dog       	11	dog10       	119	alive    	1	moves	1	natural 	1	n	0	0    	 	0.0	0	114.569820100001	114.669811300002	0.0999912000006588
154504	100	248	stimuli\movNat\waves\mn_waves09.jpg              	1	4	1	mn_waves09.jpg       	movNat   	3	waves     	38	waves09     	388	not_alive	0	moves	1	natural 	1	n	0	0    	 	0.0	0	114.71981750000099	114.8198065	0.0999889999984589
154654	100	249	stimuli\movNat\hotspring\mn_hotspring06.jpg      	1	4	1	mn_hotspring06.jpg   	movNat   	3	hotspring 	21	hotspring06 	215	not_alive	0	moves	1	natural 	1	n	0	0    	 	0.0	0	114.86981670000002	114.96980490000001	0.0999881999996432
154804	100	250	stimuli\movArt\train\ma_train03.jpg              	1	4	1	ma_train03.jpg       	movArt   	2	train     	34	train03     	342	not_alive	0	moves	1	artefact	0	n	0	0    	 	0.0	0	115.0198132	115.11980250000099	0.0999893000007432
154954	100	251	stimuli\nonmovArt\headphones\nma_headphones02.jpg	1	4	1	nma_headphones02.jpg 	nonmovArt	4	headphones	18	headphones02	181	not_alive	0	still	0	artefact	0	n	0	0    	 	0.0	0	115.169812800003	115.26980190000201	0.0999890999992203
155104	100	252	stimuli\plant2\clover\plant_clover10.jpg         	1	4	1	plant_clover10.jpg   	plant2   	7	clover    	9	clover10    	99	alive    	1	still	0	natural 	1	n	0	0    	 	0.0	0	115.31980940000001	115.4198072	0.0999977999999828
155254	100	253	stimuli\movNat\river\mn_river01.jpg              	1	4	1	mn_river01.jpg       	movNat   	3	river     	29	river01     	290	not_alive	0	moves	1	natural 	1	n	0	0    	 	0.0	0	115.4698374	115.56979799999999	0.099960600000486
155404	100	254	stimuli\nonmovNat\sand\nmn_sand04.jpg            	1	4	1	nmn_sand04.jpg       	nonmovNat	5	sand      	31	sand04      	313	not_alive	0	still	0	natural 	1	n	1	0    	 	0.0	0	115.61980770000099	115.71979809999901	0.0999903999982052
155554	100	255	stimuli\animals\dolphin\animal_dolphin01.jpg     	1	4	1	animal_dolphin01.jpg 	animals  	0	dolphin   	12	dolphin01   	120	alive    	1	moves	1	natural 	1	n	0	0    	 	0.0	0	115.769806300003	115.869795000002	0.0999886999998125
155704	100	256	stimuli\animals2\bee\animal_bee04.jpg            	1	4	1	animal_bee04.jpg     	animals2 	1	bee       	0	bee04       	3	alive    	1	moves	1	natural 	1	n	0	1    	f	0.39198250000117696	1	115.91980670000001	116.01979460000099	0.0999879000009968
155854	100	257	stimuli\plant\grass\plant_grass08.jpg            	1	4	1	plant_grass08.jpg    	plant    	6	grass     	17	grass08     	177	alive    	1	still	0	natural 	1	n	0	0    	 	0.0	0	116.0698051	116.16979170000201	0.0999866000020119
156004	100	258	stimuli\animals2\pigeon\animal_pigeon08.jpg      	1	4	1	animal_pigeon08.jpg  	animals2 	1	pigeon    	28	pigeon08    	287	alive    	1	moves	1	natural 	1	n	0	0    	 	0.0	0	116.2198021	116.319793500003	0.0999914000021817
156154	100	259	stimuli\animals\cat\animal_cat01.jpg             	1	4	1	animal_cat01.jpg     	animals  	0	cat       	6	cat01       	60	alive    	1	moves	1	natural 	1	n	0	0    	 	0.0	0	116.36979850000002	116.46978909999999	0.0999905999997281
156304	100	260	stimuli\animals\horse\animal_horse08.jpg         	1	4	1	animal_horse08.jpg   	animals  	0	horse     	20	horse08     	207	alive    	1	moves	1	natural 	1	n	0	0    	 	0.0	0	116.51979869999901	116.61978810000099	0.0999894000015046
156454	100	261	stimuli\plant2\fern\plant_fern02.jpg             	1	4	1	plant_fern02.jpg     	plant2   	7	fern      	14	fern02      	141	alive    	1	still	0	natural 	1	n	0	0    	 	0.0	0	116.669807800001	116.769785200002	0.0999774000010802
156604	100	262	stimuli\plant2\moss\plant_moss07.jpg             	1	4	1	plant_moss07.jpg     	plant2   	7	moss      	25	moss07      	256	alive    	1	still	0	natural 	1	n	0	0    	 	0.0	0	116.819793400002	116.9197838	0.0999903999982052
156754	100	263	stimuli\nonmovNat\crystal\nmn_crystal10.jpg      	1	4	1	nmn_crystal10.jpg    	nonmovNat	5	crystal   	10	crystal10   	109	not_alive	0	still	0	natural 	1	n	0	0    	 	0.0	0	116.969794100001	117.0697812	0.0999870999985432
156904	100	264	stimuli\plant2\palmtree\plant_palmtree09.jpg     	1	4	1	plant_palmtree09.jpg 	plant2   	7	palmtree  	27	palmtree09  	278	alive    	1	still	0	natural 	1	n	0	0    	 	0.0	0	117.119794000002	117.219793	0.0999989999982062
157054	100	265	stimuli\nonmovNat\sand\nmn_sand06.jpg            	1	4	1	nmn_sand06.jpg       	nonmovNat	5	sand      	31	sand06      	315	not_alive	0	still	0	natural 	1	n	0	0    	 	0.0	0	117.269806300003	117.369778	0.0999716999976954
157204	100	266	stimuli\movNat\waves\mn_waves08.jpg              	1	4	1	mn_waves08.jpg       	movNat   	3	waves     	38	waves08     	387	not_alive	0	moves	1	natural 	1	n	0	0    	 	0.0	0	117.419797500002	117.519778600003	0.09998110000015
157354	100	267	stimuli\movArt\helicopter\ma_helicopter04.jpg    	1	4	1	ma_helicopter04.jpg  	movArt   	2	helicopter	19	helicopter04	193	not_alive	0	moves	1	artefact	0	n	0	0    	 	0.0	0	117.569786700002	117.669776500003	0.0999898000009125
157504	100	268	stimuli\plant2\lemontree\plant_lemontree04.jpg   	1	4	1	plant_lemontree04.jpg	plant2   	7	lemontree 	22	lemontree04 	223	alive    	1	still	0	natural 	1	n	0	0    	 	0.0	0	117.71978870000001	117.819775399999	0.0999866999991354
157654	100	269	stimuli\nonmovNat\rock\nmn_rock06.jpg            	1	4	1	nmn_rock06.jpg       	nonmovNat	5	rock      	30	rock06      	305	not_alive	0	still	0	natural 	1	n	0	0    	 	0.0	0	117.86978459999999	117.969771700002	0.0999871000021812
157804	100	270	stimuli\nonmovArt\lock\nma_lock03.jpg            	1	4	1	nma_lock03.jpg       	nonmovArt	4	lock      	24	lock03      	242	not_alive	0	still	0	artefact	0	n	0	0    	 	0.0	0	118.019784	118.1197717	0.099987699999474
157954	100	271	stimuli\animals2\lemur\animal_lemur06.jpg        	1	4	1	animal_lemur06.jpg   	animals2 	1	lemur     	23	lemur06     	235	alive    	1	moves	1	natural 	1	n	0	0    	 	0.0	0	118.169782200002	118.269773	0.099990799997613
158104	100	272	stimuli\nonmovNat\sand\nmn_sand04.jpg            	1	4	1	nmn_sand04.jpg       	nonmovNat	5	sand      	31	sand04      	313	not_alive	0	still	0	natural 	1	n	0	0    	 	0.0	0	118.319782099999	118.41979120000201	0.10000910000235301
158254	100	273	stimuli\nonmovArt\headphones\nma_headphones07.jpg	1	4	1	nma_headphones07.jpg 	nonmovArt	4	headphones	18	headphones07	186	not_alive	0	still	0	artefact	0	n	1	0    	 	0.0	0	118.46978519999901	118.569767200002	0.0999820000033651
158404	100	274	stimuli\animals2\pigeon\animal_pigeon06.jpg      	1	4	1	animal_pigeon06.jpg  	animals2 	1	pigeon    	28	pigeon06    	285	alive    	1	moves	1	natural 	1	n	0	0    	 	0.0	0	118.619776800002	118.71976950000001	0.0999926999975286
158554	100	275	stimuli\movArt\boat\ma_boat01.jpg                	1	4	1	ma_boat01.jpg        	movArt   	2	boat      	2	boat01      	20	not_alive	0	moves	1	artefact	0	n	0	1    	f	0.29211570000188697	1	118.76977769999901	118.86976470000099	0.0999870000014198
158704	100	276	stimuli\nonmovArt\bench\nma_bench04.jpg          	1	4	1	nma_bench04.jpg      	nonmovArt	4	bench     	1	bench04     	13	not_alive	0	still	0	artefact	0	n	0	0    	 	0.0	0	118.919726700002	119.01974730000099	0.10002059999896999
158854	100	277	stimuli\animals\cat\animal_cat08.jpg             	1	4	1	animal_cat08.jpg     	animals  	0	cat       	6	cat08       	67	alive    	1	moves	1	natural 	1	n	0	0    	 	0.0	0	119.06978140000099	119.16975559999999	0.0999741999985417
159004	100	278	stimuli\nonmovNat\crystal\nmn_crystal10.jpg      	1	4	1	nmn_crystal10.jpg    	nonmovNat	5	crystal   	10	crystal10   	109	not_alive	0	still	0	natural 	1	n	0	0    	 	0.0	0	119.2197652	119.3197416	0.0999764000007417
159154	100	279	stimuli\movArt\bus\ma_bus09.jpg                  	1	4	1	ma_bus09.jpg         	movArt   	2	bus       	3	bus09       	38	not_alive	0	moves	1	artefact	0	n	0	0    	 	0.0	0	119.36976110000201	119.46975520000001	0.09999409999727499
159304	100	280	stimuli\nonmovNat\crystal\nmn_crystal08.jpg      	1	4	1	nmn_crystal08.jpg    	nonmovNat	5	crystal   	10	crystal08   	107	not_alive	0	still	0	natural 	1	n	0	0    	 	0.0	0	119.51976299999998	119.619742499999	0.0999794999988807
159454	100	281	stimuli\plant\flower\plant_flower02.jpg          	1	4	1	plant_flower02.jpg   	plant    	6	flower    	16	flower02    	161	alive    	1	still	0	natural 	1	n	0	0    	 	0.0	0	119.6697585	119.7697352	0.099976699999388
159604	100	282	stimuli\plant2\fern\plant_fern07.jpg             	1	4	1	plant_fern07.jpg     	plant2   	7	fern      	14	fern07      	146	alive    	1	still	0	natural 	1	n	0	0    	 	0.0	0	119.819755	119.91974190000099	0.0999869000006583
159754	100	283	stimuli\movArt\bus\ma_bus07.jpg                  	1	4	1	ma_bus07.jpg         	movArt   	2	bus       	3	bus07       	36	not_alive	0	moves	1	artefact	0	n	0	0    	 	0.0	0	119.969754199999	120.069744299999	0.0999900999995588
159904	100	284	stimuli\plant\tree\plant_tree03.jpg              	1	4	1	plant_tree03.jpg     	plant    	6	tree      	35	tree03      	352	alive    	1	still	0	natural 	1	n	0	0    	 	0.0	0	120.11975359999998	120.219741700002	0.0999881000025198
160054	100	285	stimuli\nonmovNat\shell\nmn_shell05.jpg          	1	4	1	nmn_shell05.jpg      	nonmovNat	5	shell     	32	shell05     	324	not_alive	0	still	0	natural 	1	n	0	0    	 	0.0	0	120.269751800002	120.3697426	0.099990799997613
160204	100	286	stimuli\movNat\hotspring\mn_hotspring06.jpg      	1	4	1	mn_hotspring06.jpg   	movNat   	3	hotspring 	21	hotspring06 	215	not_alive	0	moves	1	natural 	1	n	0	0    	 	0.0	0	120.41974990000001	120.519734699999	0.0999847999992198
160354	100	287	stimuli\animals2\bee\animal_bee05.jpg            	1	4	1	animal_bee05.jpg     	animals2 	1	bee       	0	bee05       	4	alive    	1	moves	1	natural 	1	n	0	0    	 	0.0	0	120.56973049999901	120.66973600000001	0.100005500000407
160504	100	288	stimuli\animals\cat\animal_cat04.jpg             	1	4	1	animal_cat04.jpg     	animals  	0	cat       	6	cat04       	63	alive    	1	moves	1	natural 	1	n	0	0    	 	0.0	0	120.719747700001	120.819740200001	0.0999924999996437
160654	100	289	stimuli\movArt\train\ma_train04.jpg              	1	4	1	ma_train04.jpg       	movArt   	2	train     	34	train04     	343	not_alive	0	moves	1	artefact	0	n	0	0    	 	0.0	0	120.86978799999999	120.969733599999	0.0999455999990459
160804	100	290	stimuli\animals\horse\animal_horse03.jpg         	1	4	1	animal_horse03.jpg   	animals  	0	horse     	20	horse03     	202	alive    	1	moves	1	natural 	1	n	0	0    	 	0.0	0	121.01974340000001	121.11972970000001	0.0999862999997276
160954	100	291	stimuli\plant2\palmtree\plant_palmtree01.jpg     	1	4	1	plant_palmtree01.jpg 	plant2   	7	palmtree  	27	palmtree01  	270	alive    	1	still	0	natural 	1	n	0	0    	 	0.0	0	121.1697389	121.269726400002	0.099987500001589
161104	100	292	stimuli\animals\eagle\animal_eagle04.jpg         	1	4	1	animal_eagle04.jpg   	animals  	0	eagle     	13	eagle04     	133	alive    	1	moves	1	natural 	1	n	0	0    	 	0.0	0	121.319741400002	121.41972349999901	0.0999820999968506
161254	100	293	stimuli\plant2\moss\plant_moss10.jpg             	1	4	1	plant_moss10.jpg     	plant2   	7	moss      	25	moss10      	259	alive    	1	still	0	natural 	1	n	0	0    	 	0.0	0	121.46973419999999	121.569728400002	0.0999942000016744
161404	100	294	stimuli\plant\flower\plant_flower05.jpg          	1	4	1	plant_flower05.jpg   	plant    	6	flower    	16	flower05    	164	alive    	1	still	0	natural 	1	n	0	0    	 	0.0	0	121.619737500001	121.71972609999999	0.099988599999051
161554	100	295	stimuli\plant2\clover\plant_clover02.jpg         	1	4	1	plant_clover02.jpg   	plant2   	7	clover    	9	clover02    	91	alive    	1	still	0	natural 	1	n	0	0    	 	0.0	0	121.769737099999	121.86972520000201	0.0999881000025198
161704	100	296	stimuli\movNat\waterfall\mn_waterfall02.jpg      	1	4	1	mn_waterfall02.jpg   	movNat   	3	waterfall 	37	waterfall02 	371	not_alive	0	moves	1	natural 	1	n	0	0    	 	0.0	0	121.91972399999901	122.019730600001	0.10000660000150699
161854	100	297	stimuli\nonmovNat\cliff\nmn_cliff06.jpg          	1	4	1	nmn_cliff06.jpg      	nonmovNat	5	cliff     	7	cliff06     	75	not_alive	0	still	0	natural 	1	n	0	0    	 	0.0	0	122.06972809999901	122.169714700001	0.0999866000020119
162004	100	298	stimuli\movNat\fire\mn_fire06.jpg                	1	4	1	mn_fire06.jpg        	movNat   	3	fire      	15	fire06      	155	not_alive	0	moves	1	natural 	1	n	0	0    	 	0.0	0	122.219731900001	122.319721300002	0.0999894000015046
162154	100	299	stimuli\movNat\waterfall\mn_waterfall05.jpg      	1	4	1	mn_waterfall05.jpg   	movNat   	3	waterfall 	37	waterfall05 	374	not_alive	0	moves	1	natural 	1	n	0	0    	 	0.0	0	122.369724100001	122.469712500002	0.0999884000011661
162304	100	300	stimuli\movNat\river\mn_river04.jpg              	1	4	1	mn_river04.jpg       	movNat   	3	river     	29	river04     	293	not_alive	0	moves	1	natural 	1	n	0	0    	 	0.0	0	122.519728499999	122.61973860000201	0.10001010000269199
162454	100	301	stimuli\animals2\lemur\animal_lemur10.jpg        	1	4	1	animal_lemur10.jpg   	animals2 	1	lemur     	23	lemur10     	239	alive    	1	moves	1	natural 	1	n	0	0    	 	0.0	0	122.66974860000099	122.769714599999	0.0999659999979485
162604	100	302	stimuli\nonmovNat\cliff\nmn_cliff01.jpg          	1	4	1	nmn_cliff01.jpg      	nonmovNat	5	cliff     	7	cliff01     	70	not_alive	0	still	0	natural 	1	n	0	0    	 	0.0	0	122.81972479999999	122.919713800002	0.0999890000020968
162754	100	303	stimuli\animals\dog\animal_dog06.jpg             	1	4	1	animal_dog06.jpg     	animals  	0	dog       	11	dog06       	115	alive    	1	moves	1	natural 	1	n	0	0    	 	0.0	0	122.96971879999901	123.06970750000299	0.0999887000034505
162904	100	304	stimuli\animals\dolphin\animal_dolphin09.jpg     	1	4	1	animal_dolphin09.jpg 	animals  	0	dolphin   	12	dolphin09   	128	alive    	1	moves	1	natural 	1	n	0	0    	 	0.0	0	123.11971610000201	123.2197013	0.0999851999986276
163054	100	305	stimuli\plant\grass\plant_grass01.jpg            	1	4	1	plant_grass01.jpg    	plant    	6	grass     	17	grass01     	170	alive    	1	still	0	natural 	1	n	0	0    	 	0.0	0	123.2697223	123.369703300003	0.0999810000030265
163204	100	306	stimuli\nonmovArt\clothespeg\nma_clothespeg05.jpg	1	4	1	nma_clothespeg05.jpg 	nonmovArt	4	clothespeg	8	clothespeg05	84	not_alive	0	still	0	artefact	0	n	0	0    	 	0.0	0	123.41972060000299	123.519706999999	0.0999863999968511
163354	100	307	stimuli\movNat\fire\mn_fire03.jpg                	1	4	1	mn_fire03.jpg        	movNat   	3	fire      	15	fire03      	152	not_alive	0	moves	1	natural 	1	n	0	0    	 	0.0	0	123.56971610000299	123.669707100002	0.0999909999991359
163504	100	308	stimuli\movArt\helicopter\ma_helicopter09.jpg    	1	4	1	ma_helicopter09.jpg  	movArt   	2	helicopter	19	helicopter09	198	not_alive	0	moves	1	artefact	0	n	0	0    	 	0.0	0	123.71971710000099	123.820486500001	0.10076939999999
163655	100	309	stimuli\nonmovArt\headphones\nma_headphones06.jpg	1	4	1	nma_headphones06.jpg 	nonmovArt	4	headphones	18	headphones06	185	not_alive	0	still	0	artefact	0	n	0	0    	 	0.0	0	123.870621900001	123.97052410000099	0.099902199999633
163805	100	310	stimuli\animals2\lemur\animal_lemur03.jpg        	1	4	1	animal_lemur03.jpg   	animals2 	1	lemur     	23	lemur03     	232	alive    	1	moves	1	natural 	1	n	0	0    	 	0.0	0	124.02058909999998	124.120511100002	0.0999220000012428
163955	100	311	stimuli\nonmovArt\lock\nma_lock03.jpg            	1	4	1	nma_lock03.jpg       	nonmovArt	4	lock      	24	lock03      	242	not_alive	0	still	0	artefact	0	n	0	0    	 	0.0	0	124.1706127	124.270528200002	0.0999155000026803
164105	100	312	stimuli\plant2\moss\plant_moss08.jpg             	1	4	1	plant_moss08.jpg     	plant2   	7	moss      	25	moss08      	257	alive    	1	still	0	natural 	1	n	0	0    	 	0.0	0	124.32062430000201	124.4206916	0.100067299998045
164255	100	313	stimuli\movArt\boat\ma_boat03.jpg                	1	4	1	ma_boat03.jpg        	movArt   	2	boat      	2	boat03      	22	not_alive	0	moves	1	artefact	0	n	0	0    	 	0.0	0	124.470624500002	124.5705007	0.099876199998107
164405	100	314	stimuli\plant\vine\plant_vine07.jpg              	1	4	1	plant_vine07.jpg     	plant    	6	vine      	36	vine07      	366	alive    	1	still	0	natural 	1	n	0	0    	 	0.0	0	124.620601099999	124.72050400000099	0.0999029000013251
164555	100	315	stimuli\animals2\tiger\animal_tiger04.jpg        	1	4	1	animal_tiger04.jpg   	animals2 	1	tiger     	33	tiger04     	333	alive    	1	moves	1	natural 	1	n	0	0    	 	0.0	0	124.770568800002	124.87050530000099	0.0999364999988756
164705	100	316	stimuli\plant\flower\plant_flower01.jpg          	1	4	1	plant_flower01.jpg   	plant    	6	flower    	16	flower01    	160	alive    	1	still	0	natural 	1	n	0	0    	 	0.0	0	124.92059660000099	125.02049990000201	0.09990330000073301
164855	100	317	stimuli\plant\grass\plant_grass10.jpg            	1	4	1	plant_grass10.jpg    	plant    	6	grass     	17	grass10     	179	alive    	1	still	0	natural 	1	n	0	0    	 	0.0	0	125.07059170000099	125.1704723	0.099880599998869
165005	100	318	stimuli\nonmovNat\cliff\nmn_cliff07.jpg          	1	4	1	nmn_cliff07.jpg      	nonmovNat	5	cliff     	7	cliff07     	76	not_alive	0	still	0	natural 	1	n	0	0    	 	0.0	0	125.220587899999	125.32049280000099	0.0999049000020022
165155	100	319	stimuli\nonmovNat\shell\nmn_shell02.jpg          	1	4	1	nmn_shell02.jpg      	nonmovNat	5	shell     	32	shell02     	321	not_alive	0	still	0	natural 	1	n	0	0    	 	0.0	0	125.37060249999901	125.470496000002	0.0998935000025085
176189	100	320	stimuli\nonmovArt\mug\nma_mug01.jpg              	1	5	1	nma_mug01.jpg        	nonmovArt	4	mug       	26	mug01       	260	not_alive	0	still	0	artefact	0	n	0	0    	 	0.0	0	136.403796300001	136.503677799999	0.09988149999844599
176339	100	321	stimuli\movArt\boat\ma_boat09.jpg                	1	5	1	ma_boat09.jpg        	movArt   	2	boat      	2	boat09      	28	not_alive	0	moves	1	artefact	0	n	0	0    	 	0.0	0	136.55377579999902	136.653683500001	0.0999077000014949
176489	100	322	stimuli\plant2\lemontree\plant_lemontree04.jpg   	1	5	1	plant_lemontree04.jpg	plant2   	7	lemontree 	22	lemontree04 	223	alive    	1	still	0	natural 	1	n	0	0    	 	0.0	0	136.703771700002	136.803684900002	0.0999131999997189
176639	100	323	stimuli\nonmovArt\mug\nma_mug02.jpg              	1	5	1	nma_mug02.jpg        	nonmovArt	4	mug       	26	mug02       	261	not_alive	0	still	0	artefact	0	n	0	0    	 	0.0	0	136.853781100002	136.953675200002	0.0998940999998012
176789	100	324	stimuli\animals2\pigeon\animal_pigeon04.jpg      	1	5	1	animal_pigeon04.jpg  	animals2 	1	pigeon    	28	pigeon04    	283	alive    	1	moves	1	natural 	1	n	0	0    	 	0.0	0	137.00378830000002	137.103688800002	0.0999005000012402
176939	100	325	stimuli\movArt\train\ma_train04.jpg              	1	5	1	ma_train04.jpg       	movArt   	2	train     	34	train04     	343	not_alive	0	moves	1	artefact	0	n	0	0    	 	0.0	0	137.153774800001	137.25367260000002	0.099897799998871
177089	100	326	stimuli\plant2\clover\plant_clover02.jpg         	1	5	1	plant_clover02.jpg   	plant2   	7	clover    	9	clover02    	91	alive    	1	still	0	natural 	1	n	0	0    	 	0.0	0	137.303780900002	137.4036658	0.0998848999988695
177238	100	327	stimuli\plant\cactus\plant_cactus01.jpg          	1	5	1	plant_cactus01.jpg   	plant    	6	cactus    	4	cactus01    	40	alive    	1	still	0	natural 	1	n	0	0    	 	0.0	0	137.4537576	137.55366540000298	0.0999078000022564
177389	100	328	stimuli\plant2\fern\plant_fern10.jpg             	1	5	1	plant_fern10.jpg     	plant2   	7	fern      	14	fern10      	149	alive    	1	still	0	natural 	1	n	0	0    	 	0.0	0	137.60378100000202	137.703672300002	0.0998913000003085
177539	100	329	stimuli\movArt\car\ma_car08.jpg                  	1	5	1	ma_car08.jpg         	movArt   	2	car       	5	car08       	57	not_alive	0	moves	1	artefact	0	n	0	0    	 	0.0	0	137.753779000002	137.85367140000002	0.0998923999977705
177688	100	330	stimuli\animals\dog\animal_dog08.jpg             	1	5	1	animal_dog08.jpg     	animals  	0	dog       	11	dog08       	117	alive    	1	moves	1	natural 	1	n	0	0    	 	0.0	0	137.90375630000202	138.0037634	0.100007099998038
177839	100	331	stimuli\animals\dolphin\animal_dolphin09.jpg     	1	5	1	animal_dolphin09.jpg 	animals  	0	dolphin   	12	dolphin09   	128	alive    	1	moves	1	natural 	1	n	0	0    	 	0.0	0	138.053866599999	138.1536643	0.0997977000006358
177989	100	332	stimuli\nonmovArt\mug\nma_mug10.jpg              	1	5	1	nma_mug10.jpg        	nonmovArt	4	mug       	26	mug10       	269	not_alive	0	still	0	artefact	0	n	0	0    	 	0.0	0	138.20375860000098	138.30366710000098	0.0999085000003106
178139	100	333	stimuli\nonmovArt\bench\nma_bench09.jpg          	1	5	1	nma_bench09.jpg      	nonmovArt	4	bench     	1	bench09     	18	not_alive	0	still	0	artefact	0	n	0	0    	 	0.0	0	138.35376299999902	138.453672800002	0.0999098000029334
178289	100	334	stimuli\movArt\helicopter\ma_helicopter02.jpg    	1	5	1	ma_helicopter02.jpg  	movArt   	2	helicopter	19	helicopter02	191	not_alive	0	moves	1	artefact	0	n	0	0    	 	0.0	0	138.503777000002	138.6036614	0.0998843999987002
178439	100	335	stimuli\plant2\palmtree\plant_palmtree02.jpg     	1	5	1	plant_palmtree02.jpg 	plant2   	7	palmtree  	27	palmtree02  	271	alive    	1	still	0	natural 	1	n	0	0    	 	0.0	0	138.653767600001	138.753668699999	0.099901099998533
178589	100	336	stimuli\animals2\whale\animal_whale02.jpg        	1	5	1	animal_whale02.jpg   	animals2 	1	whale     	39	whale02     	391	alive    	1	moves	1	natural 	1	n	0	0    	 	0.0	0	138.803761900002	138.9036591	0.0998971999979403
178739	100	337	stimuli\movNat\fire\mn_fire08.jpg                	1	5	1	mn_fire08.jpg        	movNat   	3	fire      	15	fire08      	157	not_alive	0	moves	1	natural 	1	n	0	0    	 	0.0	0	138.953755000002	139.053661599999	0.0999065999967569
178889	100	338	stimuli\animals2\whale\animal_whale09.jpg        	1	5	1	animal_whale09.jpg   	animals2 	1	whale     	39	whale09     	398	alive    	1	moves	1	natural 	1	n	0	0    	 	0.0	0	139.103755300002	139.203665700003	0.0999104000002262
179039	100	339	stimuli\movNat\waves\mn_waves04.jpg              	1	5	1	mn_waves04.jpg       	movNat   	3	waves     	38	waves04     	383	not_alive	0	moves	1	natural 	1	n	0	0    	 	0.0	0	139.253768000002	139.353651699999	0.09988369999700801
179189	100	340	stimuli\animals\eagle\animal_eagle10.jpg         	1	5	1	animal_eagle10.jpg   	animals  	0	eagle     	13	eagle10     	139	alive    	1	moves	1	natural 	1	n	0	0    	 	0.0	0	139.403764000002	139.50365330000201	0.0998892999996314
179338	100	341	stimuli\nonmovNat\shell\nmn_shell08.jpg          	1	5	1	nmn_shell08.jpg      	nonmovNat	5	shell     	32	shell08     	327	not_alive	0	still	0	natural 	1	n	0	0    	 	0.0	0	139.5537406	139.653662100001	0.0999215000010735
179488	100	342	stimuli\plant\vine\plant_vine01.jpg              	1	5	1	plant_vine01.jpg     	plant    	6	vine      	36	vine01      	360	alive    	1	still	0	natural 	1	n	1	0    	 	0.0	0	139.703685	139.80365990000098	0.0999749000002339
179639	100	343	stimuli\animals2\bee\animal_bee07.jpg            	1	5	1	animal_bee07.jpg     	animals2 	1	bee       	0	bee07       	6	alive    	1	moves	1	natural 	1	n	0	0    	 	0.0	0	139.853800200002	139.95364819999998	0.09984799999801901
179789	100	344	stimuli\animals2\whale\animal_whale02.jpg        	1	5	1	animal_whale02.jpg   	animals2 	1	whale     	39	whale02     	391	alive    	1	moves	1	natural 	1	n	0	1    	f	0.29209450000053006	1	140.003749	140.10366480000098	0.0999158000013267
179939	100	345	stimuli\plant\tree\plant_tree01.jpg              	1	5	1	plant_tree01.jpg     	plant    	6	tree      	35	tree01      	350	alive    	1	still	0	natural 	1	n	0	0    	 	0.0	0	140.153913900001	140.253644799999	0.0997308999976667
180088	100	346	stimuli\movArt\car\ma_car08.jpg                  	1	5	1	ma_car08.jpg         	movArt   	2	car       	5	car08       	57	not_alive	0	moves	1	artefact	0	n	0	0    	 	0.0	0	140.30373740000098	140.403641299999	0.0999038999980257
180238	100	347	stimuli\nonmovNat\rock\nmn_rock04.jpg            	1	5	1	nmn_rock04.jpg       	nonmovNat	5	rock      	30	rock04      	303	not_alive	0	still	0	natural 	1	n	0	0    	 	0.0	0	140.453735700001	140.55364510000098	0.0999093999998876
180388	100	348	stimuli\animals2\tiger\animal_tiger07.jpg        	1	5	1	animal_tiger07.jpg   	animals2 	1	tiger     	33	tiger07     	336	alive    	1	moves	1	natural 	1	n	0	0    	 	0.0	0	140.6037234	140.703633600002	0.0999102000023413
180538	100	349	stimuli\nonmovArt\lock\nma_lock01.jpg            	1	5	1	nma_lock01.jpg       	nonmovArt	4	lock      	24	lock01      	240	not_alive	0	still	0	artefact	0	n	0	0    	 	0.0	0	140.753725000002	140.85363800000098	0.09991299999819599
180688	100	350	stimuli\nonmovArt\clothespeg\nma_clothespeg07.jpg	1	5	1	nma_clothespeg07.jpg 	nonmovArt	4	clothespeg	8	clothespeg07	86	not_alive	0	still	0	artefact	0	n	0	0    	 	0.0	0	140.90372969999999	141.00364099999902	0.0999112999998033
180838	100	351	stimuli\nonmovNat\rock\nmn_rock02.jpg            	1	5	1	nmn_rock02.jpg       	nonmovNat	5	rock      	30	rock02      	301	not_alive	0	still	0	natural 	1	n	0	0    	 	0.0	0	141.053735100002	141.1536246	0.0998894999975164
180988	100	352	stimuli\plant\cactus\plant_cactus01.jpg          	1	5	1	plant_cactus01.jpg   	plant    	6	cactus    	4	cactus01    	40	alive    	1	still	0	natural 	1	n	0	0    	 	0.0	0	141.203738	141.303636799999	0.0998987999992096
181138	100	353	stimuli\plant\vine\plant_vine04.jpg              	1	5	1	plant_vine04.jpg     	plant    	6	vine      	36	vine04      	363	alive    	1	still	0	natural 	1	n	0	0    	 	0.0	0	141.353724100001	141.453634000001	0.0999099000000569
181288	100	354	stimuli\movArt\bus\ma_bus02.jpg                  	1	5	1	ma_bus02.jpg         	movArt   	2	bus       	3	bus02       	31	not_alive	0	moves	1	artefact	0	n	0	0    	 	0.0	0	141.50373000000002	141.603748600002	0.10001860000193101
181439	100	355	stimuli\movNat\hotspring\mn_hotspring06.jpg      	1	5	1	mn_hotspring06.jpg   	movNat   	3	hotspring 	21	hotspring06 	215	not_alive	0	moves	1	natural 	1	n	0	0    	 	0.0	0	141.653784599999	141.75363270000202	0.0998481000024185
181588	100	356	stimuli\plant2\lemontree\plant_lemontree06.jpg   	1	5	1	plant_lemontree06.jpg	plant2   	7	lemontree 	22	lemontree06 	225	alive    	1	still	0	natural 	1	n	0	0    	 	0.0	0	141.803727400002	141.903638899999	0.0999114999976882
181738	100	357	stimuli\nonmovArt\clothespeg\nma_clothespeg10.jpg	1	5	1	nma_clothespeg10.jpg 	nonmovArt	4	clothespeg	8	clothespeg10	89	not_alive	0	still	0	artefact	0	n	0	0    	 	0.0	0	141.953716	142.05362760000202	0.0999116000020876
181888	100	358	stimuli\plant\tree\plant_tree10.jpg              	1	5	1	plant_tree10.jpg     	plant    	6	tree      	35	tree10      	359	alive    	1	still	0	natural 	1	n	0	0    	 	0.0	0	142.103721300002	142.203619399999	0.0998980999975174
182038	100	359	stimuli\movArt\car\ma_car03.jpg                  	1	5	1	ma_car03.jpg         	movArt   	2	car       	5	car03       	52	not_alive	0	moves	1	artefact	0	n	0	0    	 	0.0	0	142.25371930000298	142.3536351	0.0999157999976887
182188	100	360	stimuli\animals2\lemur\animal_lemur04.jpg        	1	5	1	animal_lemur04.jpg   	animals2 	1	lemur     	23	lemur04     	233	alive    	1	moves	1	natural 	1	n	0	0    	 	0.0	0	142.403707500001	142.50362959999998	0.0999220999983663
182338	100	361	stimuli\nonmovNat\sand\nmn_sand02.jpg            	1	5	1	nmn_sand02.jpg       	nonmovNat	5	sand      	31	sand02      	311	not_alive	0	still	0	natural 	1	n	0	0    	 	0.0	0	142.553712299999	142.65363080000003	0.0999185000000579
182488	100	362	stimuli\animals2\bee\animal_bee03.jpg            	1	5	1	animal_bee03.jpg     	animals2 	1	bee       	0	bee03       	2	alive    	1	moves	1	natural 	1	n	0	0    	 	0.0	0	142.70372509999999	142.803619099999	0.0998939999990398
182638	100	363	stimuli\plant\flower\plant_flower06.jpg          	1	5	1	plant_flower06.jpg   	plant    	6	flower    	16	flower06    	165	alive    	1	still	0	natural 	1	n	0	0    	 	0.0	0	142.853714299999	142.953609200002	0.0998949000022548
182788	100	364	stimuli\plant\cactus\plant_cactus10.jpg          	1	5	1	plant_cactus10.jpg   	plant    	6	cactus    	4	cactus10    	49	alive    	1	still	0	natural 	1	n	0	0    	 	0.0	0	143.003708300002	143.103630100002	0.0999217999997199
182938	100	365	stimuli\movNat\river\mn_river08.jpg              	1	5	1	mn_river08.jpg       	movNat   	3	river     	29	river08     	297	not_alive	0	moves	1	natural 	1	n	0	0    	 	0.0	0	143.153722400002	143.253579	0.0998565999980201
183088	100	366	stimuli\nonmovNat\rock\nmn_rock07.jpg            	1	5	1	nmn_rock07.jpg       	nonmovNat	5	rock      	30	rock07      	306	not_alive	0	still	0	natural 	1	n	0	0    	 	0.0	0	143.30369440000098	143.403606800002	0.0999124000009032
183239	100	367	stimuli\movArt\bus\ma_bus04.jpg                  	1	5	1	ma_bus04.jpg         	movArt   	2	bus       	3	bus04       	33	not_alive	0	moves	1	artefact	0	n	0	0    	 	0.0	0	143.45379430000003	143.55360800000201	0.0998137000024144
183388	100	368	stimuli\animals2\whale\animal_whale05.jpg        	1	5	1	animal_whale05.jpg   	animals2 	1	whale     	39	whale05     	394	alive    	1	moves	1	natural 	1	n	0	0    	 	0.0	0	143.603700399999	143.70361090000003	0.0999105000009876
183538	100	369	stimuli\animals2\pigeon\animal_pigeon01.jpg      	1	5	1	animal_pigeon01.jpg  	animals2 	1	pigeon    	28	pigeon01    	280	alive    	1	moves	1	natural 	1	n	0	0    	 	0.0	0	143.75370950000098	143.853617200002	0.0999077000014949
183688	100	370	stimuli\movArt\car\ma_car10.jpg                  	1	5	1	ma_car10.jpg         	movArt   	2	car       	5	car10       	59	not_alive	0	moves	1	artefact	0	n	0	0    	 	0.0	0	143.903718600002	144.003605500002	0.0998868999995466
183838	100	371	stimuli\movArt\bus\ma_bus05.jpg                  	1	5	1	ma_bus05.jpg         	movArt   	2	bus       	3	bus05       	34	not_alive	0	moves	1	artefact	0	n	0	0    	 	0.0	0	144.053718400002	144.153571800001	0.0998533999991195
183988	100	372	stimuli\animals2\bee\animal_bee09.jpg            	1	5	1	animal_bee09.jpg     	animals2 	1	bee       	0	bee09       	8	alive    	1	moves	1	natural 	1	n	0	0    	 	0.0	0	144.203701000002	144.303599900002	0.099898899999971
184138	100	373	stimuli\nonmovNat\rock\nmn_rock08.jpg            	1	5	1	nmn_rock08.jpg       	nonmovNat	5	rock      	30	rock08      	307	not_alive	0	still	0	natural 	1	n	1	0    	 	0.0	0	144.353693900001	144.45360630000098	0.0999124000009032
184289	100	374	stimuli\nonmovArt\bench\nma_bench08.jpg          	1	5	1	nma_bench08.jpg      	nonmovArt	4	bench     	1	bench08     	17	not_alive	0	still	0	artefact	0	n	0	0    	 	0.0	0	144.503721600002	144.6036021	0.0998804999981075
184438	100	375	stimuli\nonmovNat\cliff\nmn_cliff04.jpg          	1	5	1	nmn_cliff04.jpg      	nonmovNat	5	cliff     	7	cliff04     	73	not_alive	0	still	0	natural 	1	n	0	0    	 	0.0	0	144.653710900002	144.75359799999902	0.0998870999974315
184588	100	376	stimuli\nonmovArt\headphones\nma_headphones05.jpg	1	5	1	nma_headphones05.jpg 	nonmovArt	4	headphones	18	headphones05	184	not_alive	0	still	0	artefact	0	n	0	1    	f	0.442079399999784	1	144.803705900002	144.903631900001	0.099925999998959
184738	100	377	stimuli\plant2\clover\plant_clover03.jpg         	1	5	1	plant_clover03.jpg   	plant2   	7	clover    	9	clover03    	92	alive    	1	still	0	natural 	1	n	0	0    	 	0.0	0	144.95368819999902	145.053614299999	0.0999260999997204
184889	100	378	stimuli\animals\eagle\animal_eagle09.jpg         	1	5	1	animal_eagle09.jpg   	animals  	0	eagle     	13	eagle09     	138	alive    	1	moves	1	natural 	1	n	0	0    	 	0.0	0	145.10378169999998	145.203637300001	0.0998556000013195
185038	100	379	stimuli\plant\tree\plant_tree01.jpg              	1	5	1	plant_tree01.jpg     	plant    	6	tree      	35	tree01      	350	alive    	1	still	0	natural 	1	n	0	0    	 	0.0	0	145.25368990000098	145.3535749	0.0998849999996309
185188	100	380	stimuli\plant2\moss\plant_moss07.jpg             	1	5	1	plant_moss07.jpg     	plant2   	7	moss      	25	moss07      	256	alive    	1	still	0	natural 	1	n	0	0    	 	0.0	0	145.403688000002	145.503585800001	0.099897799998871
185338	100	381	stimuli\plant2\lemontree\plant_lemontree07.jpg   	1	5	1	plant_lemontree07.jpg	plant2   	7	lemontree 	22	lemontree07 	226	alive    	1	still	0	natural 	1	n	1	0    	 	0.0	0	145.553681600002	145.65358320000098	0.0999015999987023
185488	100	382	stimuli\animals2\whale\animal_whale06.jpg        	1	5	1	animal_whale06.jpg   	animals2 	1	whale     	39	whale06     	395	alive    	1	moves	1	natural 	1	n	0	0    	 	0.0	0	145.7036849	145.80359199999998	0.0999071000005642
185638	100	383	stimuli\movNat\waves\mn_waves10.jpg              	1	5	1	mn_waves10.jpg       	movNat   	3	waves     	38	waves10     	389	not_alive	0	moves	1	natural 	1	n	0	0    	 	0.0	0	145.853690399999	145.953581000002	0.0998906000022543
185788	100	384	stimuli\movArt\car\ma_car09.jpg                  	1	5	1	ma_car09.jpg         	movArt   	2	car       	5	car09       	58	not_alive	0	moves	1	artefact	0	n	0	1    	f	0.5419714999989079	1	146.0036702	146.103586200003	0.0999160000028496
185938	100	385	stimuli\plant2\fern\plant_fern07.jpg             	1	5	1	plant_fern07.jpg     	plant2   	7	fern      	14	fern07      	146	alive    	1	still	0	natural 	1	n	0	0    	 	0.0	0	146.153678800001	146.253594600003	0.0999158000013267
186088	100	386	stimuli\movNat\fire\mn_fire05.jpg                	1	5	1	mn_fire05.jpg        	movNat   	3	fire      	15	fire05      	154	not_alive	0	moves	1	natural 	1	n	0	0    	 	0.0	0	146.303669200002	146.40358390000299	0.0999147000002267
186238	100	387	stimuli\animals\dog\animal_dog05.jpg             	1	5	1	animal_dog05.jpg     	animals  	0	dog       	11	dog05       	114	alive    	1	moves	1	natural 	1	n	0	0    	 	0.0	0	146.453670900002	146.553582100001	0.0999111999990418
186388	100	388	stimuli\movArt\boat\ma_boat02.jpg                	1	5	1	ma_boat02.jpg        	movArt   	2	boat      	2	boat02      	21	not_alive	0	moves	1	artefact	0	n	0	0    	 	0.0	0	146.603672100002	146.70356330000098	0.0998911999995471
186538	100	389	stimuli\animals2\tiger\animal_tiger03.jpg        	1	5	1	animal_tiger03.jpg   	animals2 	1	tiger     	33	tiger03     	332	alive    	1	moves	1	natural 	1	n	0	0    	 	0.0	0	146.753670100003	146.85358200000002	0.09991189999709599
186689	100	390	stimuli\nonmovArt\bench\nma_bench06.jpg          	1	5	1	nma_bench06.jpg      	nonmovArt	4	bench     	1	bench06     	15	not_alive	0	still	0	artefact	0	n	0	0    	 	0.0	0	146.903763599999	147.0035818	0.0998182000002998
186838	100	391	stimuli\movArt\train\ma_train03.jpg              	1	5	1	ma_train03.jpg       	movArt   	2	train     	34	train03     	342	not_alive	0	moves	1	artefact	0	n	0	0    	 	0.0	0	147.053679600002	147.1535668	0.0998871999981929
186988	100	392	stimuli\plant2\clover\plant_clover04.jpg         	1	5	1	plant_clover04.jpg   	plant2   	7	clover    	9	clover04    	93	alive    	1	still	0	natural 	1	n	0	0    	 	0.0	0	147.2036654	147.30357619999998	0.09991079999963401
187138	100	393	stimuli\nonmovArt\headphones\nma_headphones04.jpg	1	5	1	nma_headphones04.jpg 	nonmovArt	4	headphones	18	headphones04	183	not_alive	0	still	0	artefact	0	n	0	0    	 	0.0	0	147.35366230000002	147.453566800003	0.0999045000025944
187288	100	394	stimuli\nonmovNat\sand\nmn_sand07.jpg            	1	5	1	nmn_sand07.jpg       	nonmovNat	5	sand      	31	sand07      	316	not_alive	0	still	0	natural 	1	n	0	0    	 	0.0	0	147.50365760000201	147.603572800002	0.099915200000396
187438	100	395	stimuli\animals2\lemur\animal_lemur06.jpg        	1	5	1	animal_lemur06.jpg   	animals2 	1	lemur     	23	lemur06     	235	alive    	1	moves	1	natural 	1	n	0	0    	 	0.0	0	147.653660100001	147.753557600001	0.0998975000002246
187588	100	396	stimuli\plant\cactus\plant_cactus05.jpg          	1	5	1	plant_cactus05.jpg   	plant    	6	cactus    	4	cactus05    	44	alive    	1	still	0	natural 	1	n	0	0    	 	0.0	0	147.803669299999	147.90354059999999	0.0998713000008138
187738	100	397	stimuli\plant2\moss\plant_moss05.jpg             	1	5	1	plant_moss05.jpg     	plant2   	7	moss      	25	moss05      	254	alive    	1	still	0	natural 	1	n	0	0    	 	0.0	0	147.953647900002	148.053559200001	0.0999112999998033
187888	100	398	stimuli\plant\grass\plant_grass06.jpg            	1	5	1	plant_grass06.jpg    	plant    	6	grass     	17	grass06     	175	alive    	1	still	0	natural 	1	n	0	0    	 	0.0	0	148.103662100002	148.20356710000098	0.0999049999991257
188038	100	399	stimuli\nonmovArt\clothespeg\nma_clothespeg06.jpg	1	5	1	nma_clothespeg06.jpg 	nonmovArt	4	clothespeg	8	clothespeg06	85	not_alive	0	still	0	artefact	0	n	0	0    	 	0.0	0	148.25365199999902	148.353552600001	0.0999006000020017
194372	100	400	stimuli\nonmovArt\clothespeg\nma_clothespeg09.jpg	1	6	1	nma_clothespeg09.jpg 	nonmovArt	4	clothespeg	8	clothespeg09	88	not_alive	0	still	0	artefact	0	n	0	0    	 	0.0	0	154.586969600001	154.68684299999902	0.0998733999986143
194522	100	401	stimuli\nonmovNat\sand\nmn_sand03.jpg            	1	6	1	nmn_sand03.jpg       	nonmovNat	5	sand      	31	sand03      	312	not_alive	0	still	0	natural 	1	n	0	0    	 	0.0	0	154.73693630000002	154.8368524	0.09991609999997302
194672	100	402	stimuli\plant\vine\plant_vine09.jpg              	1	6	1	plant_vine09.jpg     	plant    	6	vine      	36	vine09      	368	alive    	1	still	0	natural 	1	n	0	0    	 	0.0	0	154.887014300002	154.986862000002	0.0998476999993727
194822	100	403	stimuli\animals2\tiger\animal_tiger10.jpg        	1	6	1	animal_tiger10.jpg   	animals2 	1	tiger     	33	tiger10     	339	alive    	1	moves	1	natural 	1	n	0	0    	 	0.0	0	155.036927699999	155.136833	0.09990530000141
194972	100	404	stimuli\nonmovNat\crystal\nmn_crystal06.jpg      	1	6	1	nmn_crystal06.jpg    	nonmovNat	5	crystal   	10	crystal06   	105	not_alive	0	still	0	natural 	1	n	0	0    	 	0.0	0	155.186921799999	155.286826300002	0.0999045000025944
195122	100	405	stimuli\movNat\fire\mn_fire04.jpg                	1	6	1	mn_fire04.jpg        	movNat   	3	fire      	15	fire04      	153	not_alive	0	moves	1	natural 	1	n	0	0    	 	0.0	0	155.33691969999902	155.436824600001	0.0999049000020022
195272	100	406	stimuli\movNat\hotspring\mn_hotspring09.jpg      	1	6	1	mn_hotspring09.jpg   	movNat   	3	hotspring 	21	hotspring09 	218	not_alive	0	moves	1	natural 	1	n	0	0    	 	0.0	0	155.486913100001	155.5868243	0.0999111999990418
195422	100	407	stimuli\nonmovNat\cliff\nmn_cliff04.jpg          	1	6	1	nmn_cliff04.jpg      	nonmovNat	5	cliff     	7	cliff04     	73	not_alive	0	still	0	natural 	1	n	0	0    	 	0.0	0	155.636905900003	155.7368154	0.0999094999970111
195572	100	408	stimuli\plant2\palmtree\plant_palmtree07.jpg     	1	6	1	plant_palmtree07.jpg 	plant2   	7	palmtree  	27	palmtree07  	276	alive    	1	still	0	natural 	1	n	0	0    	 	0.0	0	155.786887500002	155.886818200001	0.0999306999983673
195722	100	409	stimuli\movNat\waves\mn_waves01.jpg              	1	6	1	mn_waves01.jpg       	movNat   	3	waves     	38	waves01     	380	not_alive	0	moves	1	natural 	1	n	0	0    	 	0.0	0	155.936912100002	156.036817700002	0.0999056000000564
195872	100	410	stimuli\animals2\bee\animal_bee08.jpg            	1	6	1	animal_bee08.jpg     	animals2 	1	bee       	0	bee08       	7	alive    	1	moves	1	natural 	1	n	0	0    	 	0.0	0	156.086926300002	156.186813	0.0998866999980236
196022	100	411	stimuli\animals\cat\animal_cat02.jpg             	1	6	1	animal_cat02.jpg     	animals  	0	cat       	6	cat02       	61	alive    	1	moves	1	natural 	1	n	0	0    	 	0.0	0	156.23691730000098	156.336815800001	0.0998985000005632
196172	100	412	stimuli\animals\dog\animal_dog07.jpg             	1	6	1	animal_dog07.jpg     	animals  	0	dog       	11	dog07       	116	alive    	1	moves	1	natural 	1	n	0	0    	 	0.0	0	156.386907	156.486813200001	0.0999062000009871
196322	100	413	stimuli\movArt\helicopter\ma_helicopter08.jpg    	1	6	1	ma_helicopter08.jpg  	movArt   	2	helicopter	19	helicopter08	197	not_alive	0	moves	1	artefact	0	n	0	0    	 	0.0	0	156.5369096	156.6368181	0.0999085000003106
196472	100	414	stimuli\plant2\fern\plant_fern10.jpg             	1	6	1	plant_fern10.jpg     	plant2   	7	fern      	14	fern10      	149	alive    	1	still	0	natural 	1	n	0	0    	 	0.0	0	156.68702030000003	156.78682730000202	0.09980700000232902
196622	100	415	stimuli\movNat\hotspring\mn_hotspring05.jpg      	1	6	1	mn_hotspring05.jpg   	movNat   	3	hotspring 	21	hotspring05 	214	not_alive	0	moves	1	natural 	1	n	0	0    	 	0.0	0	156.836911800001	156.9368024	0.0998905999986163
196772	100	416	stimuli\movArt\boat\ma_boat03.jpg                	1	6	1	ma_boat03.jpg        	movArt   	2	boat      	2	boat03      	22	not_alive	0	moves	1	artefact	0	n	0	0    	 	0.0	0	156.986904100002	157.086807700001	0.0999035999993793
196922	100	417	stimuli\animals2\tiger\animal_tiger06.jpg        	1	6	1	animal_tiger06.jpg   	animals2 	1	tiger     	33	tiger06     	335	alive    	1	moves	1	natural 	1	n	0	0    	 	0.0	0	157.136899000001	157.236797000001	0.0998980000003939
197072	100	418	stimuli\animals\eagle\animal_eagle01.jpg         	1	6	1	animal_eagle01.jpg   	animals  	0	eagle     	13	eagle01     	130	alive    	1	moves	1	natural 	1	n	0	0    	 	0.0	0	157.28689830000098	157.38679820000098	0.0998999000003095
