onset	duration	eventnumber	stimulus_file	blockno	trialno	is_faststream	stim	stim_category	category_number	exemplar	exemplar_number	image_name	image_number	aliveness	aliveness_bin	movement	movement_bin	naturalness	naturalness_bin	response_hand_moves	istarget	response	keypressed	rt	correct	time_stimon	time_stimoff	stimdur
78256	100	0	stimuli\animals\horse\animal_horse04.jpg         	1	1	1	animal_horse04.jpg   	animals  	0	horse     	20	horse04     	203	alive    	1	moves	1	natural 	1	n	0	0    	 	0.0	0	100.6800772	100.780039	0.0999618
78406	100	1	stimuli\plant\grass\plant_grass09.jpg            	1	1	1	plant_grass09.jpg    	plant    	6	grass     	17	grass09     	178	alive    	1	still	0	natural 	1	n	0	0    	 	0.0	0	100.83007309999999	100.9300488	0.0999757
78556	100	2	stimuli\nonmovArt\mug\nma_mug07.jpg              	1	1	1	nma_mug07.jpg        	nonmovArt	4	mug       	26	mug07       	266	not_alive	0	still	0	artefact	0	n	0	0    	 	0.0	0	100.98006059999999	101.0800499	0.0999893
78706	100	3	stimuli\nonmovNat\shell\nmn_shell07.jpg          	1	1	1	nmn_shell07.jpg      	nonmovNat	5	shell     	32	shell07     	326	not_alive	0	still	0	natural 	1	n	0	0    	 	0.0	0	101.1300569	101.2300477	0.0999908
78856	100	4	stimuli\nonmovArt\mug\nma_mug06.jpg              	1	1	1	nma_mug06.jpg        	nonmovArt	4	mug       	26	mug06       	265	not_alive	0	still	0	artefact	0	n	0	0    	 	0.0	0	101.2800556	101.3800446	0.099989
79006	100	5	stimuli\movArt\bus\ma_bus08.jpg                  	1	1	1	ma_bus08.jpg         	movArt   	2	bus       	3	bus08       	37	not_alive	0	moves	1	artefact	0	n	0	0    	 	0.0	0	101.43005179999999	101.5300422	0.0999904
79156	100	6	stimuli\nonmovArt\clothespeg\nma_clothespeg07.jpg	1	1	1	nma_clothespeg07.jpg 	nonmovArt	4	clothespeg	8	clothespeg07	86	not_alive	0	still	0	artefact	0	n	0	0    	 	0.0	0	101.580054	101.68004930000001	0.0999953
79306	100	7	stimuli\animals\eagle\animal_eagle02.jpg         	1	1	1	animal_eagle02.jpg   	animals  	0	eagle     	13	eagle02     	131	alive    	1	moves	1	natural 	1	n	0	0    	 	0.0	0	101.7300493	101.83004100000001	0.0999916999999999
79456	100	8	stimuli\plant\flower\plant_flower06.jpg          	1	1	1	plant_flower06.jpg   	plant    	6	flower    	16	flower06    	165	alive    	1	still	0	natural 	1	n	0	0    	 	0.0	0	101.88032120000001	101.9800439	0.0997227
79606	100	9	stimuli\movArt\train\ma_train06.jpg              	1	1	1	ma_train06.jpg       	movArt   	2	train     	34	train06     	345	not_alive	0	moves	1	artefact	0	n	0	0    	 	0.0	0	102.0300473	102.13003640000001	0.09998910000000001
79756	100	10	stimuli\plant2\lemontree\plant_lemontree01.jpg   	1	1	1	plant_lemontree01.jpg	plant2   	7	lemontree 	22	lemontree01 	220	alive    	1	still	0	natural 	1	n	0	0    	 	0.0	0	102.180048	102.2800456	0.0999976
79906	100	11	stimuli\plant\tree\plant_tree06.jpg              	1	1	1	plant_tree06.jpg     	plant    	6	tree      	35	tree06      	355	alive    	1	still	0	natural 	1	n	0	0    	 	0.0	0	102.3300389	102.430037	0.0999981
80056	100	12	stimuli\animals2\whale\animal_whale04.jpg        	1	1	1	animal_whale04.jpg   	animals2 	1	whale     	39	whale04     	393	alive    	1	moves	1	natural 	1	n	0	0    	 	0.0	0	102.480174	102.5800339	0.0998598999999999
80206	100	13	stimuli\animals\cat\animal_cat07.jpg             	1	1	1	animal_cat07.jpg     	animals  	0	cat       	6	cat07       	66	alive    	1	moves	1	natural 	1	n	0	0    	 	0.0	0	102.63004029999999	102.73003229999999	0.099992
80356	100	14	stimuli\animals\cat\animal_cat09.jpg             	1	1	1	animal_cat09.jpg     	animals  	0	cat       	6	cat09       	68	alive    	1	moves	1	natural 	1	n	0	0    	 	0.0	0	102.780045	102.8800308	0.0999858
80506	100	15	stimuli\animals2\lemur\animal_lemur03.jpg        	1	1	1	animal_lemur03.jpg   	animals2 	1	lemur     	23	lemur03     	232	alive    	1	moves	1	natural 	1	n	0	0    	 	0.0	0	102.9300374	103.0299871	0.0999497
80656	100	16	stimuli\nonmovNat\sand\nmn_sand04.jpg            	1	1	1	nmn_sand04.jpg       	nonmovNat	5	sand      	31	sand04      	313	not_alive	0	still	0	natural 	1	n	0	0    	 	0.0	0	103.08002809999999	103.18001269999999	0.0999846
80806	100	17	stimuli\nonmovArt\lock\nma_lock07.jpg            	1	1	1	nma_lock07.jpg       	nonmovArt	4	lock      	24	lock07      	246	not_alive	0	still	0	artefact	0	n	0	0    	 	0.0	0	103.23002240000001	103.330014	0.0999916
80956	100	18	stimuli\nonmovNat\cliff\nmn_cliff07.jpg          	1	1	1	nmn_cliff07.jpg      	nonmovNat	5	cliff     	7	cliff07     	76	not_alive	0	still	0	natural 	1	n	0	0    	 	0.0	0	103.3800202	103.48001020000001	0.09999
81106	100	19	stimuli\plant\cactus\plant_cactus07.jpg          	1	1	1	plant_cactus07.jpg   	plant    	6	cactus    	4	cactus07    	46	alive    	1	still	0	natural 	1	n	0	0    	 	0.0	0	103.5300291	103.6300109	0.0999818
81256	100	20	stimuli\movArt\bus\ma_bus02.jpg                  	1	1	1	ma_bus02.jpg         	movArt   	2	bus       	3	bus02       	31	not_alive	0	moves	1	artefact	0	n	0	0    	 	0.0	0	103.6800196	103.7800163	0.0999967
81406	100	21	stimuli\plant2\lemontree\plant_lemontree04.jpg   	1	1	1	plant_lemontree04.jpg	plant2   	7	lemontree 	22	lemontree04 	223	alive    	1	still	0	natural 	1	n	0	0    	 	0.0	0	103.8300164	103.9300131	0.0999967
81556	100	22	stimuli\movArt\car\ma_car08.jpg                  	1	1	1	ma_car08.jpg         	movArt   	2	car       	5	car08       	57	not_alive	0	moves	1	artefact	0	n	0	0    	 	0.0	0	103.98002209999999	104.08000820000001	0.09998610000000001
81706	100	23	stimuli\movArt\boat\ma_boat04.jpg                	1	1	1	ma_boat04.jpg        	movArt   	2	boat      	2	boat04      	23	not_alive	0	moves	1	artefact	0	n	0	0    	 	0.0	0	104.1300417	104.2300198	0.0999781
81856	100	24	stimuli\nonmovNat\crystal\nmn_crystal04.jpg      	1	1	1	nmn_crystal04.jpg    	nonmovNat	5	crystal   	10	crystal04   	103	not_alive	0	still	0	natural 	1	n	0	0    	 	0.0	0	104.2800114	104.380009	0.0999976
82006	100	25	stimuli\plant2\fern\plant_fern09.jpg             	1	1	1	plant_fern09.jpg     	plant2   	7	fern      	14	fern09      	148	alive    	1	still	0	natural 	1	n	0	0    	 	0.0	0	104.430011	104.5300007	0.0999896999999999
82156	100	26	stimuli\animals2\tiger\animal_tiger02.jpg        	1	1	1	animal_tiger02.jpg   	animals2 	1	tiger     	33	tiger02     	331	alive    	1	moves	1	natural 	1	n	0	0    	 	0.0	0	104.5800106	104.6800002	0.09998960000000001
82306	100	27	stimuli\movNat\waterfall\mn_waterfall03.jpg      	1	1	1	mn_waterfall03.jpg   	movNat   	3	waterfall 	37	waterfall03 	372	not_alive	0	moves	1	natural 	1	n	0	0    	 	0.0	0	104.7300099	104.8299988	0.0999888999999999
82456	100	28	stimuli\movNat\fire\mn_fire08.jpg                	1	1	1	mn_fire08.jpg        	movNat   	3	fire      	15	fire08      	157	not_alive	0	moves	1	natural 	1	n	0	0    	 	0.0	0	104.8800132	104.97999990000001	0.0999867
82606	100	29	stimuli\movNat\hotspring\mn_hotspring07.jpg      	1	1	1	mn_hotspring07.jpg   	movNat   	3	hotspring 	21	hotspring07 	216	not_alive	0	moves	1	natural 	1	n	0	0    	 	0.0	0	105.0300048	105.129995	0.0999901999999999
82756	100	30	stimuli\animals2\lemur\animal_lemur09.jpg        	1	1	1	animal_lemur09.jpg   	animals2 	1	lemur     	23	lemur09     	238	alive    	1	moves	1	natural 	1	n	0	0    	 	0.0	0	105.18000420000001	105.2800048	0.10000060000000001
82906	100	31	stimuli\animals2\bee\animal_bee09.jpg            	1	1	1	animal_bee09.jpg     	animals2 	1	bee       	0	bee09       	8	alive    	1	moves	1	natural 	1	n	0	0    	 	0.0	0	105.33000790000001	105.4299938	0.0999858999999999
83056	100	32	stimuli\plant\vine\plant_vine01.jpg              	1	1	1	plant_vine01.jpg     	plant    	6	vine      	36	vine01      	360	alive    	1	still	0	natural 	1	n	0	0    	 	0.0	0	105.47999979999999	105.5799909	0.0999911
83206	100	33	stimuli\plant\grass\plant_grass08.jpg            	1	1	1	plant_grass08.jpg    	plant    	6	grass     	17	grass08     	177	alive    	1	still	0	natural 	1	n	1	0    	 	0.0	0	105.63000020000001	105.7299898	0.09998960000000001
83356	100	34	stimuli\movNat\fire\mn_fire06.jpg                	1	1	1	mn_fire06.jpg        	movNat   	3	fire      	15	fire06      	155	not_alive	0	moves	1	natural 	1	n	0	1    	f	0.25768979999999997	1	105.779999	105.87998870000001	0.0999896999999999
83506	100	35	stimuli\animals\horse\animal_horse02.jpg         	1	1	1	animal_horse02.jpg   	animals  	0	horse     	20	horse02     	201	alive    	1	moves	1	natural 	1	n	0	0    	 	0.0	0	105.9300152	106.02998659999999	0.0999713999999999
83656	100	36	stimuli\movNat\waterfall\mn_waterfall04.jpg      	1	1	1	mn_waterfall04.jpg   	movNat   	3	waterfall 	37	waterfall04 	373	not_alive	0	moves	1	natural 	1	n	1	0    	 	0.0	0	106.0799999	106.1799838	0.0999839
83806	100	37	stimuli\nonmovNat\cliff\nmn_cliff05.jpg          	1	1	1	nmn_cliff05.jpg      	nonmovNat	5	cliff     	7	cliff05     	74	not_alive	0	still	0	natural 	1	n	0	0    	 	0.0	0	106.22999159999999	106.3299835	0.0999919
83956	100	38	stimuli\animals\eagle\animal_eagle08.jpg         	1	1	1	animal_eagle08.jpg   	animals  	0	eagle     	13	eagle08     	137	alive    	1	moves	1	natural 	1	n	0	0    	 	0.0	0	106.3799916	106.47998329999999	0.0999916999999999
84106	100	39	stimuli\movArt\helicopter\ma_helicopter08.jpg    	1	1	1	ma_helicopter08.jpg  	movArt   	2	helicopter	19	helicopter08	197	not_alive	0	moves	1	artefact	0	n	0	0    	 	0.0	0	106.5299887	106.6299787	0.09999
84256	100	40	stimuli\movNat\waves\mn_waves05.jpg              	1	1	1	mn_waves05.jpg       	movNat   	3	waves     	38	waves05     	384	not_alive	0	moves	1	natural 	1	n	0	0    	 	0.0	0	106.67999040000001	106.7799847	0.0999943
84406	100	41	stimuli\movArt\car\ma_car10.jpg                  	1	1	1	ma_car10.jpg         	movArt   	2	car       	5	car10       	59	not_alive	0	moves	1	artefact	0	n	0	0    	 	0.0	0	106.82998590000001	106.92997849999999	0.0999926
84556	100	42	stimuli\nonmovArt\bench\nma_bench08.jpg          	1	1	1	nma_bench08.jpg      	nonmovArt	4	bench     	1	bench08     	17	not_alive	0	still	0	artefact	0	n	0	0    	 	0.0	0	106.9799861	107.07997720000002	0.0999911
84706	100	43	stimuli\nonmovNat\cliff\nmn_cliff05.jpg          	1	1	1	nmn_cliff05.jpg      	nonmovNat	5	cliff     	7	cliff05     	74	not_alive	0	still	0	natural 	1	n	0	0    	 	0.0	0	107.1299842	107.2299723	0.09998810000000001
84856	100	44	stimuli\plant2\palmtree\plant_palmtree07.jpg     	1	1	1	plant_palmtree07.jpg 	plant2   	7	palmtree  	27	palmtree07  	276	alive    	1	still	0	natural 	1	n	0	0    	 	0.0	0	107.2799835	107.37997859999999	0.0999951
85006	100	45	stimuli\animals\dolphin\animal_dolphin01.jpg     	1	1	1	animal_dolphin01.jpg 	animals  	0	dolphin   	12	dolphin01   	120	alive    	1	moves	1	natural 	1	n	0	0    	 	0.0	0	107.42998519999999	107.52997020000001	0.099985
85156	100	46	stimuli\nonmovNat\shell\nmn_shell06.jpg          	1	1	1	nmn_shell06.jpg      	nonmovNat	5	shell     	32	shell06     	325	not_alive	0	still	0	natural 	1	n	0	0    	 	0.0	0	107.5799754	107.6799669	0.0999915
85306	100	47	stimuli\nonmovNat\sand\nmn_sand08.jpg            	1	1	1	nmn_sand08.jpg       	nonmovNat	5	sand      	31	sand08      	317	not_alive	0	still	0	natural 	1	n	0	0    	 	0.0	0	107.72999750000001	107.82996909999999	0.09997160000000001
85456	100	48	stimuli\plant2\fern\plant_fern08.jpg             	1	1	1	plant_fern08.jpg     	plant2   	7	fern      	14	fern08      	147	alive    	1	still	0	natural 	1	n	0	0    	 	0.0	0	107.87997730000001	107.97996780000001	0.0999905
85606	100	49	stimuli\movArt\bus\ma_bus07.jpg                  	1	1	1	ma_bus07.jpg         	movArt   	2	bus       	3	bus07       	36	not_alive	0	moves	1	artefact	0	n	0	0    	 	0.0	0	108.02997649999999	108.12996709999999	0.09999060000000001
85756	100	50	stimuli\plant2\fern\plant_fern09.jpg             	1	1	1	plant_fern09.jpg     	plant2   	7	fern      	14	fern09      	148	alive    	1	still	0	natural 	1	n	0	0    	 	0.0	0	108.17997460000001	108.27997069999999	0.0999961
85906	100	51	stimuli\movArt\helicopter\ma_helicopter09.jpg    	1	1	1	ma_helicopter09.jpg  	movArt   	2	helicopter	19	helicopter09	198	not_alive	0	moves	1	artefact	0	n	0	0    	 	0.0	0	108.329972	108.42996299999999	0.099991
86057	100	52	stimuli\nonmovArt\headphones\nma_headphones07.jpg	1	1	1	nma_headphones07.jpg 	nonmovArt	4	headphones	18	headphones07	186	not_alive	0	still	0	artefact	0	n	0	0    	 	0.0	0	108.4808591	108.58076299999999	0.0999039
86207	100	53	stimuli\movNat\river\mn_river01.jpg              	1	1	1	mn_river01.jpg       	movNat   	3	river     	29	river01     	290	not_alive	0	moves	1	natural 	1	n	0	0    	 	0.0	0	108.63085500000001	108.73078500000001	0.0999299999999999
86357	100	54	stimuli\nonmovNat\shell\nmn_shell04.jpg          	1	1	1	nmn_shell04.jpg      	nonmovNat	5	shell     	32	shell04     	323	not_alive	0	still	0	natural 	1	n	1	0    	 	0.0	0	108.78084969999999	108.88076229999999	0.0999126
86507	100	55	stimuli\nonmovNat\rock\nmn_rock04.jpg            	1	1	1	nmn_rock04.jpg       	nonmovNat	5	rock      	30	rock04      	303	not_alive	0	still	0	natural 	1	n	0	0    	 	0.0	0	108.93085559999999	109.0307509	0.0998952999999999
86657	100	56	stimuli\animals2\tiger\animal_tiger07.jpg        	1	1	1	animal_tiger07.jpg   	animals2 	1	tiger     	33	tiger07     	336	alive    	1	moves	1	natural 	1	n	0	1    	f	0.292035	1	109.08083789999999	109.1807595	0.0999216
86807	100	57	stimuli\plant2\palmtree\plant_palmtree04.jpg     	1	1	1	plant_palmtree04.jpg 	plant2   	7	palmtree  	27	palmtree04  	273	alive    	1	still	0	natural 	1	n	0	0    	 	0.0	0	109.23083600000001	109.33076090000002	0.0999249
86957	100	58	stimuli\movArt\boat\ma_boat08.jpg                	1	1	1	ma_boat08.jpg        	movArt   	2	boat      	2	boat08      	27	not_alive	0	moves	1	artefact	0	n	0	0    	 	0.0	0	109.3808325	109.48082590000001	0.0999934
87107	100	59	stimuli\plant\tree\plant_tree08.jpg              	1	1	1	plant_tree08.jpg     	plant    	6	tree      	35	tree08      	357	alive    	1	still	0	natural 	1	n	0	0    	 	0.0	0	109.53102520000002	109.6308062	0.099781
87257	100	60	stimuli\plant2\moss\plant_moss06.jpg             	1	1	1	plant_moss06.jpg     	plant2   	7	moss      	25	moss06      	255	alive    	1	still	0	natural 	1	n	0	0    	 	0.0	0	109.6808209	109.7807452	0.09992430000000001
87407	100	61	stimuli\movNat\river\mn_river09.jpg              	1	1	1	mn_river09.jpg       	movNat   	3	river     	29	river09     	298	not_alive	0	moves	1	natural 	1	n	0	0    	 	0.0	0	109.83081969999999	109.9307405	0.0999208
87557	100	62	stimuli\animals2\bee\animal_bee06.jpg            	1	1	1	animal_bee06.jpg     	animals2 	1	bee       	0	bee06       	5	alive    	1	moves	1	natural 	1	n	0	0    	 	0.0	0	109.9808355	110.0807761	0.0999406
87707	100	63	stimuli\animals2\whale\animal_whale03.jpg        	1	1	1	animal_whale03.jpg   	animals2 	1	whale     	39	whale03     	392	alive    	1	moves	1	natural 	1	n	0	0    	 	0.0	0	110.1308201	110.23075379999999	0.0999337
87857	100	64	stimuli\plant2\clover\plant_clover10.jpg         	1	1	1	plant_clover10.jpg   	plant2   	7	clover    	9	clover10    	99	alive    	1	still	0	natural 	1	n	0	0    	 	0.0	0	110.2808227	110.3807469	0.0999241999999999
88007	100	65	stimuli\nonmovArt\bench\nma_bench02.jpg          	1	1	1	nma_bench02.jpg      	nonmovArt	4	bench     	1	bench02     	11	not_alive	0	still	0	artefact	0	n	0	0    	 	0.0	0	110.4308453	110.53075359999998	0.0999083
88157	100	66	stimuli\animals2\pigeon\animal_pigeon04.jpg      	1	1	1	animal_pigeon04.jpg  	animals2 	1	pigeon    	28	pigeon04    	283	alive    	1	moves	1	natural 	1	n	0	0    	 	0.0	0	110.5808146	110.6807508	0.0999362
88307	100	67	stimuli\movNat\waterfall\mn_waterfall09.jpg      	1	1	1	mn_waterfall09.jpg   	movNat   	3	waterfall 	37	waterfall09 	378	not_alive	0	moves	1	natural 	1	n	0	0    	 	0.0	0	110.7308223	110.830722	0.0998997
88457	100	68	stimuli\nonmovArt\mug\nma_mug08.jpg              	1	1	1	nma_mug08.jpg        	nonmovArt	4	mug       	26	mug08       	267	not_alive	0	still	0	artefact	0	n	0	0    	 	0.0	0	110.88083689999999	110.9807338	0.0998969
88607	100	69	stimuli\animals2\tiger\animal_tiger08.jpg        	1	1	1	animal_tiger08.jpg   	animals2 	1	tiger     	33	tiger08     	337	alive    	1	moves	1	natural 	1	n	0	0    	 	0.0	0	111.0308223	111.1307476	0.09992530000000001
88757	100	70	stimuli\movNat\hotspring\mn_hotspring03.jpg      	1	1	1	mn_hotspring03.jpg   	movNat   	3	hotspring 	21	hotspring03 	212	not_alive	0	moves	1	natural 	1	n	0	0    	 	0.0	0	111.1808108	111.280906	0.1000952
88907	100	71	stimuli\animals\cat\animal_cat03.jpg             	1	1	1	animal_cat03.jpg     	animals  	0	cat       	6	cat03       	62	alive    	1	moves	1	natural 	1	n	0	0    	 	0.0	0	111.330978	111.43072920000002	0.0997512
89057	100	72	stimuli\nonmovArt\headphones\nma_headphones10.jpg	1	1	1	nma_headphones10.jpg 	nonmovArt	4	headphones	18	headphones10	189	not_alive	0	still	0	artefact	0	n	0	0    	 	0.0	0	111.4808051	111.5807199	0.0999148
89207	100	73	stimuli\nonmovNat\crystal\nmn_crystal08.jpg      	1	1	1	nmn_crystal08.jpg    	nonmovNat	5	crystal   	10	crystal08   	107	not_alive	0	still	0	natural 	1	n	0	0    	 	0.0	0	111.630803	111.73072690000001	0.0999239
89357	100	74	stimuli\animals\horse\animal_horse06.jpg         	1	1	1	animal_horse06.jpg   	animals  	0	horse     	20	horse06     	205	alive    	1	moves	1	natural 	1	n	0	0    	 	0.0	0	111.78082260000001	111.8807358	0.0999132
89507	100	75	stimuli\animals2\lemur\animal_lemur06.jpg        	1	1	1	animal_lemur06.jpg   	animals2 	1	lemur     	23	lemur06     	235	alive    	1	moves	1	natural 	1	n	0	0    	 	0.0	0	111.93080970000001	112.0307423	0.0999326
89657	100	76	stimuli\animals\dog\animal_dog10.jpg             	1	1	1	animal_dog10.jpg     	animals  	0	dog       	11	dog10       	119	alive    	1	moves	1	natural 	1	n	0	0    	 	0.0	0	112.080816	112.1807298	0.0999138
89807	100	77	stimuli\animals2\pigeon\animal_pigeon05.jpg      	1	1	1	animal_pigeon05.jpg  	animals2 	1	pigeon    	28	pigeon05    	284	alive    	1	moves	1	natural 	1	n	0	0    	 	0.0	0	112.23081090000002	112.3307277	0.0999168
89957	100	78	stimuli\nonmovArt\lock\nma_lock03.jpg            	1	1	1	nma_lock03.jpg       	nonmovArt	4	lock      	24	lock03      	242	not_alive	0	still	0	artefact	0	n	0	0    	 	0.0	0	112.38079740000002	112.4807084	0.099911
90107	100	79	stimuli\nonmovArt\bench\nma_bench01.jpg          	1	1	1	nma_bench01.jpg      	nonmovArt	4	bench     	1	bench01     	10	not_alive	0	still	0	artefact	0	n	0	0    	 	0.0	0	112.5307834	112.63073119999999	0.0999478
92940	100	80	stimuli\plant\flower\plant_flower03.jpg          	1	2	1	plant_flower03.jpg   	plant    	6	flower    	16	flower03    	162	alive    	1	still	0	natural 	1	n	0	0    	 	0.0	0	115.36411470000002	115.46402379999999	0.0999091
93090	100	81	stimuli\plant\vine\plant_vine03.jpg              	1	2	1	plant_vine03.jpg     	plant    	6	vine      	36	vine03      	362	alive    	1	still	0	natural 	1	n	0	0    	 	0.0	0	115.51409720000001	115.6140069	0.0999097
93240	100	82	stimuli\animals\dog\animal_dog09.jpg             	1	2	1	animal_dog09.jpg     	animals  	0	dog       	11	dog09       	118	alive    	1	moves	1	natural 	1	n	0	0    	 	0.0	0	115.66409009999998	115.7640178	0.0999277
93390	100	83	stimuli\movArt\boat\ma_boat02.jpg                	1	2	1	ma_boat02.jpg        	movArt   	2	boat      	2	boat02      	21	not_alive	0	moves	1	artefact	0	n	0	0    	 	0.0	0	115.8140988	115.91401450000001	0.0999157
93540	100	84	stimuli\nonmovArt\clothespeg\nma_clothespeg03.jpg	1	2	1	nma_clothespeg03.jpg 	nonmovArt	4	clothespeg	8	clothespeg03	82	not_alive	0	still	0	artefact	0	n	0	0    	 	0.0	0	115.964073	116.06402309999999	0.09995010000000001
93690	100	85	stimuli\plant2\clover\plant_clover01.jpg         	1	2	1	plant_clover01.jpg   	plant2   	7	clover    	9	clover01    	90	alive    	1	still	0	natural 	1	n	0	0    	 	0.0	0	116.11409350000001	116.21401329999999	0.0999198
93840	100	86	stimuli\movNat\waves\mn_waves07.jpg              	1	2	1	mn_waves07.jpg       	movNat   	3	waves     	38	waves07     	386	not_alive	0	moves	1	natural 	1	n	0	0    	 	0.0	0	116.26410039999999	116.36400890000002	0.0999085
93990	100	87	stimuli\animals\dolphin\animal_dolphin09.jpg     	1	2	1	animal_dolphin09.jpg 	animals  	0	dolphin   	12	dolphin09   	128	alive    	1	moves	1	natural 	1	n	0	0    	 	0.0	0	116.4141842	116.51401770000001	0.0998335
94140	100	88	stimuli\movNat\fire\mn_fire08.jpg                	1	2	1	mn_fire08.jpg        	movNat   	3	fire      	15	fire08      	157	not_alive	0	moves	1	natural 	1	n	0	0    	 	0.0	0	116.56408049999999	116.66400149999998	0.09992100000000001
94290	100	89	stimuli\plant2\palmtree\plant_palmtree03.jpg     	1	2	1	plant_palmtree03.jpg 	plant2   	7	palmtree  	27	palmtree03  	272	alive    	1	still	0	natural 	1	n	0	0    	 	0.0	0	116.71408400000001	116.8140094	0.0999253999999999
94440	100	90	stimuli\animals2\whale\animal_whale02.jpg        	1	2	1	animal_whale02.jpg   	animals2 	1	whale     	39	whale02     	391	alive    	1	moves	1	natural 	1	n	0	0    	 	0.0	0	116.86408909999999	116.9639942	0.09990510000000001
94590	100	91	stimuli\plant\vine\plant_vine08.jpg              	1	2	1	plant_vine08.jpg     	plant    	6	vine      	36	vine08      	367	alive    	1	still	0	natural 	1	n	0	0    	 	0.0	0	117.01407720000002	117.1139912	0.099914
94740	100	92	stimuli\plant2\clover\plant_clover10.jpg         	1	2	1	plant_clover10.jpg   	plant2   	7	clover    	9	clover10    	99	alive    	1	still	0	natural 	1	n	0	0    	 	0.0	0	117.16407959999998	117.2639989	0.0999193
94890	100	93	stimuli\plant\cactus\plant_cactus02.jpg          	1	2	1	plant_cactus02.jpg   	plant    	6	cactus    	4	cactus02    	41	alive    	1	still	0	natural 	1	n	0	0    	 	0.0	0	117.314079	117.4140116	0.0999326
95040	100	94	stimuli\nonmovNat\rock\nmn_rock03.jpg            	1	2	1	nmn_rock03.jpg       	nonmovNat	5	rock      	30	rock03      	302	not_alive	0	still	0	natural 	1	n	0	0    	 	0.0	0	117.4640888	117.5639851	0.09989630000000001
95190	100	95	stimuli\movArt\train\ma_train10.jpg              	1	2	1	ma_train10.jpg       	movArt   	2	train     	34	train10     	349	not_alive	0	moves	1	artefact	0	n	0	0    	 	0.0	0	117.61407990000001	117.7139865	0.0999066
95340	100	96	stimuli\animals\eagle\animal_eagle08.jpg         	1	2	1	animal_eagle08.jpg   	animals  	0	eagle     	13	eagle08     	137	alive    	1	moves	1	natural 	1	n	0	0    	 	0.0	0	117.7640645	117.86400249999998	0.099938
95490	100	97	stimuli\plant\grass\plant_grass02.jpg            	1	2	1	plant_grass02.jpg    	plant    	6	grass     	17	grass02     	171	alive    	1	still	0	natural 	1	n	0	0    	 	0.0	0	117.9140782	118.0139923	0.0999141
95640	100	98	stimuli\plant\cactus\plant_cactus03.jpg          	1	2	1	plant_cactus03.jpg   	plant    	6	cactus    	4	cactus03    	42	alive    	1	still	0	natural 	1	n	0	0    	 	0.0	0	118.0641489	118.1640726	0.0999236999999999
95790	100	99	stimuli\nonmovNat\crystal\nmn_crystal04.jpg      	1	2	1	nmn_crystal04.jpg    	nonmovNat	5	crystal   	10	crystal04   	103	not_alive	0	still	0	natural 	1	n	0	0    	 	0.0	0	118.2141741	118.3139908	0.0998167
95940	100	100	stimuli\plant\flower\plant_flower02.jpg          	1	2	1	plant_flower02.jpg   	plant    	6	flower    	16	flower02    	161	alive    	1	still	0	natural 	1	n	0	0    	 	0.0	0	118.3640595	118.46399620000001	0.0999366999999999
96090	100	101	stimuli\nonmovNat\rock\nmn_rock06.jpg            	1	2	1	nmn_rock06.jpg       	nonmovNat	5	rock      	30	rock06      	305	not_alive	0	still	0	natural 	1	n	0	0    	 	0.0	0	118.51403959999999	118.61398999999999	0.0999504
96240	100	102	stimuli\animals2\pigeon\animal_pigeon10.jpg      	1	2	1	animal_pigeon10.jpg  	animals2 	1	pigeon    	28	pigeon10    	289	alive    	1	moves	1	natural 	1	n	0	0    	 	0.0	0	118.66406229999998	118.76396940000001	0.0999071
96390	100	103	stimuli\plant\tree\plant_tree05.jpg              	1	2	1	plant_tree05.jpg     	plant    	6	tree      	35	tree05      	354	alive    	1	still	0	natural 	1	n	0	0    	 	0.0	0	118.81405670000001	118.9139876	0.0999309
96540	100	104	stimuli\nonmovArt\clothespeg\nma_clothespeg08.jpg	1	2	1	nma_clothespeg08.jpg 	nonmovArt	4	clothespeg	8	clothespeg08	87	not_alive	0	still	0	artefact	0	n	0	0    	 	0.0	0	118.96406040000001	119.063966	0.0999056
96690	100	105	stimuli\movNat\hotspring\mn_hotspring01.jpg      	1	2	1	mn_hotspring01.jpg   	movNat   	3	hotspring 	21	hotspring01 	210	not_alive	0	moves	1	natural 	1	n	0	0    	 	0.0	0	119.1140537	119.21399009999999	0.0999364
96840	100	106	stimuli\animals2\bee\animal_bee02.jpg            	1	2	1	animal_bee02.jpg     	animals2 	1	bee       	0	bee02       	1	alive    	1	moves	1	natural 	1	n	0	0    	 	0.0	0	119.26404769999999	119.36397579999999	0.0999281
96990	100	107	stimuli\movNat\waves\mn_waves05.jpg              	1	2	1	mn_waves05.jpg       	movNat   	3	waves     	38	waves05     	384	not_alive	0	moves	1	natural 	1	n	0	0    	 	0.0	0	119.4140535	119.51398940000001	0.0999359
97140	100	108	stimuli\nonmovArt\headphones\nma_headphones04.jpg	1	2	1	nma_headphones04.jpg 	nonmovArt	4	headphones	18	headphones04	183	not_alive	0	still	0	artefact	0	n	0	0    	 	0.0	0	119.5640505	119.66399820000001	0.0999477
97290	100	109	stimuli\animals\dog\animal_dog02.jpg             	1	2	1	animal_dog02.jpg     	animals  	0	dog       	11	dog02       	111	alive    	1	moves	1	natural 	1	n	0	0    	 	0.0	0	119.71405549999999	119.81398829999999	0.0999328
97440	100	110	stimuli\plant2\lemontree\plant_lemontree08.jpg   	1	2	1	plant_lemontree08.jpg	plant2   	7	lemontree 	22	lemontree08 	227	alive    	1	still	0	natural 	1	n	0	0    	 	0.0	0	119.8640436	119.9639652	0.0999216
97590	100	111	stimuli\nonmovArt\lock\nma_lock10.jpg            	1	2	1	nma_lock10.jpg       	nonmovArt	4	lock      	24	lock10      	249	not_alive	0	still	0	artefact	0	n	0	0    	 	0.0	0	120.0140928	120.11397759999998	0.09988480000000001
97740	100	112	stimuli\movArt\train\ma_train10.jpg              	1	2	1	ma_train10.jpg       	movArt   	2	train     	34	train10     	349	not_alive	0	moves	1	artefact	0	n	0	0    	 	0.0	0	120.1640348	120.2639793	0.0999445
97890	100	113	stimuli\plant2\moss\plant_moss10.jpg             	1	2	1	plant_moss10.jpg     	plant2   	7	moss      	25	moss10      	259	alive    	1	still	0	natural 	1	n	0	0    	 	0.0	0	120.3140455	120.41396110000001	0.09991560000000001
98040	100	114	stimuli\movNat\river\mn_river02.jpg              	1	2	1	mn_river02.jpg       	movNat   	3	river     	29	river02     	291	not_alive	0	moves	1	natural 	1	n	0	0    	 	0.0	0	120.46404720000001	120.5639662	0.09991900000000001
98190	100	115	stimuli\plant2\moss\plant_moss01.jpg             	1	2	1	plant_moss01.jpg     	plant2   	7	moss      	25	moss01      	250	alive    	1	still	0	natural 	1	n	0	0    	 	0.0	0	120.61405259999998	120.7139821	0.0999294999999999
98340	100	116	stimuli\movArt\car\ma_car07.jpg                  	1	2	1	ma_car07.jpg         	movArt   	2	car       	5	car07       	56	not_alive	0	moves	1	artefact	0	n	0	0    	 	0.0	0	120.7640443	120.86396780000001	0.0999235
98490	100	117	stimuli\animals\dolphin\animal_dolphin10.jpg     	1	2	1	animal_dolphin10.jpg 	animals  	0	dolphin   	12	dolphin10   	129	alive    	1	moves	1	natural 	1	n	1	0    	 	0.0	0	120.9140443	121.0139737	0.0999294
98640	100	118	stimuli\nonmovNat\sand\nmn_sand08.jpg            	1	2	1	nmn_sand08.jpg       	nonmovNat	5	sand      	31	sand08      	317	not_alive	0	still	0	natural 	1	n	0	0    	 	0.0	0	121.0640331	121.1639592	0.0999261
98790	100	119	stimuli\movArt\helicopter\ma_helicopter03.jpg    	1	2	1	ma_helicopter03.jpg  	movArt   	2	helicopter	19	helicopter03	192	not_alive	0	moves	1	artefact	0	n	0	1    	f	0.29205240000000005	1	121.21404309999998	121.31395259999998	0.0999095
98940	100	120	stimuli\movNat\river\mn_river09.jpg              	1	2	1	mn_river09.jpg       	movNat   	3	river     	29	river09     	298	not_alive	0	moves	1	natural 	1	n	0	0    	 	0.0	0	121.36403190000001	121.46397569999999	0.0999438
99090	100	121	stimuli\movNat\hotspring\mn_hotspring05.jpg      	1	2	1	mn_hotspring05.jpg   	movNat   	3	hotspring 	21	hotspring05 	214	not_alive	0	moves	1	natural 	1	n	0	0    	 	0.0	0	121.51404579999999	121.61396129999999	0.0999154999999999
99240	100	122	stimuli\plant\grass\plant_grass09.jpg            	1	2	1	plant_grass09.jpg    	plant    	6	grass     	17	grass09     	178	alive    	1	still	0	natural 	1	n	0	0    	 	0.0	0	121.66415740000001	121.76404240000001	0.099885
99390	100	123	stimuli\nonmovArt\clothespeg\nma_clothespeg02.jpg	1	2	1	nma_clothespeg02.jpg 	nonmovArt	4	clothespeg	8	clothespeg02	81	not_alive	0	still	0	artefact	0	n	0	0    	 	0.0	0	121.8140695	121.913953	0.0998835
99540	100	124	stimuli\nonmovArt\headphones\nma_headphones08.jpg	1	2	1	nma_headphones08.jpg 	nonmovArt	4	headphones	18	headphones08	187	not_alive	0	still	0	artefact	0	n	1	0    	 	0.0	0	121.9640281	122.06395049999999	0.0999224
99690	100	125	stimuli\animals2\pigeon\animal_pigeon06.jpg      	1	2	1	animal_pigeon06.jpg  	animals2 	1	pigeon    	28	pigeon06    	285	alive    	1	moves	1	natural 	1	n	0	0    	 	0.0	0	122.11404420000001	122.2139259	0.0998817
99840	100	126	stimuli\plant\cactus\plant_cactus09.jpg          	1	2	1	plant_cactus09.jpg   	plant    	6	cactus    	4	cactus09    	48	alive    	1	still	0	natural 	1	n	0	1    	f	0.39198890000000003	1	122.2640337	122.3639313	0.09989760000000002
99990	100	127	stimuli\plant\tree\plant_tree01.jpg              	1	2	1	plant_tree01.jpg     	plant    	6	tree      	35	tree01      	350	alive    	1	still	0	natural 	1	n	0	0    	 	0.0	0	122.41403000000001	122.5139413	0.09991130000000001
100140	100	128	stimuli\nonmovArt\headphones\nma_headphones03.jpg	1	2	1	nma_headphones03.jpg 	nonmovArt	4	headphones	18	headphones03	182	not_alive	0	still	0	artefact	0	n	0	0    	 	0.0	0	122.5640264	122.6639722	0.09994580000000002
100290	100	129	stimuli\nonmovNat\sand\nmn_sand09.jpg            	1	2	1	nmn_sand09.jpg       	nonmovNat	5	sand      	31	sand09      	318	not_alive	0	still	0	natural 	1	n	0	0    	 	0.0	0	122.7140334	122.8139612	0.0999278
100440	100	130	stimuli\plant\flower\plant_flower06.jpg          	1	2	1	plant_flower06.jpg   	plant    	6	flower    	16	flower06    	165	alive    	1	still	0	natural 	1	n	0	0    	 	0.0	0	122.86401570000001	122.9639365	0.0999208
100590	100	131	stimuli\animals2\tiger\animal_tiger04.jpg        	1	2	1	animal_tiger04.jpg   	animals2 	1	tiger     	33	tiger04     	333	alive    	1	moves	1	natural 	1	n	0	0    	 	0.0	0	123.0140216	123.11395459999999	0.09993300000000001
100740	100	132	stimuli\animals\dolphin\animal_dolphin03.jpg     	1	2	1	animal_dolphin03.jpg 	animals  	0	dolphin   	12	dolphin03   	122	alive    	1	moves	1	natural 	1	n	0	0    	 	0.0	0	123.16402179999999	123.26393999999999	0.0999182
100890	100	133	stimuli\plant\grass\plant_grass06.jpg            	1	2	1	plant_grass06.jpg    	plant    	6	grass     	17	grass06     	175	alive    	1	still	0	natural 	1	n	0	0    	 	0.0	0	123.31401310000001	123.41391370000001	0.0999006
101040	100	134	stimuli\nonmovArt\headphones\nma_headphones04.jpg	1	2	1	nma_headphones04.jpg 	nonmovArt	4	headphones	18	headphones04	183	not_alive	0	still	0	artefact	0	n	1	0    	 	0.0	0	123.46402320000001	123.56396809999998	0.0999448999999999
101190	100	135	stimuli\movArt\boat\ma_boat01.jpg                	1	2	1	ma_boat01.jpg        	movArt   	2	boat      	2	boat01      	20	not_alive	0	moves	1	artefact	0	n	0	0    	 	0.0	0	123.6140028	123.71394540000001	0.0999426
101340	100	136	stimuli\plant2\fern\plant_fern08.jpg             	1	2	1	plant_fern08.jpg     	plant2   	7	fern      	14	fern08      	147	alive    	1	still	0	natural 	1	n	0	1    	f	0.39196929999999996	1	123.76401059999999	123.8639327	0.0999221
101490	100	137	stimuli\nonmovNat\rock\nmn_rock05.jpg            	1	2	1	nmn_rock05.jpg       	nonmovNat	5	rock      	30	rock05      	304	not_alive	0	still	0	natural 	1	n	0	0    	 	0.0	0	123.91401599999999	124.01392390000001	0.0999079
101640	100	138	stimuli\animals\dolphin\animal_dolphin08.jpg     	1	2	1	animal_dolphin08.jpg 	animals  	0	dolphin   	12	dolphin08   	127	alive    	1	moves	1	natural 	1	n	0	0    	 	0.0	0	124.0640253	124.16391540000001	0.09989010000000001
101790	100	139	stimuli\animals\dog\animal_dog06.jpg             	1	2	1	animal_dog06.jpg     	animals  	0	dog       	11	dog06       	115	alive    	1	moves	1	natural 	1	n	0	0    	 	0.0	0	124.214018	124.3139419	0.0999239
101940	100	140	stimuli\movArt\helicopter\ma_helicopter04.jpg    	1	2	1	ma_helicopter04.jpg  	movArt   	2	helicopter	19	helicopter04	193	not_alive	0	moves	1	artefact	0	n	0	0    	 	0.0	0	124.36398909999998	124.4639261	0.099937
102090	100	141	stimuli\plant2\moss\plant_moss09.jpg             	1	2	1	plant_moss09.jpg     	plant2   	7	moss      	25	moss09      	258	alive    	1	still	0	natural 	1	n	0	0    	 	0.0	0	124.5139976	124.61392439999999	0.0999268
102240	100	142	stimuli\movArt\bus\ma_bus04.jpg                  	1	2	1	ma_bus04.jpg         	movArt   	2	bus       	3	bus04       	33	not_alive	0	moves	1	artefact	0	n	0	0    	 	0.0	0	124.6640027	124.7639324	0.0999297
102390	100	143	stimuli\animals2\bee\animal_bee03.jpg            	1	2	1	animal_bee03.jpg     	animals2 	1	bee       	0	bee03       	2	alive    	1	moves	1	natural 	1	n	0	0    	 	0.0	0	124.8139709	124.9139223	0.0999514
102540	100	144	stimuli\nonmovNat\sand\nmn_sand01.jpg            	1	2	1	nmn_sand01.jpg       	nonmovNat	5	sand      	31	sand01      	310	not_alive	0	still	0	natural 	1	n	0	0    	 	0.0	0	124.96398049999999	125.06392609999999	0.0999456
102690	100	145	stimuli\plant2\moss\plant_moss08.jpg             	1	2	1	plant_moss08.jpg     	plant2   	7	moss      	25	moss08      	257	alive    	1	still	0	natural 	1	n	0	0    	 	0.0	0	125.1140364	125.21405590000002	0.10001950000000001
102840	100	146	stimuli\movNat\fire\mn_fire07.jpg                	1	2	1	mn_fire07.jpg        	movNat   	3	fire      	15	fire07      	156	not_alive	0	moves	1	natural 	1	n	0	0    	 	0.0	0	125.2640912	125.3639535	0.0998623
102990	100	147	stimuli\animals2\whale\animal_whale07.jpg        	1	2	1	animal_whale07.jpg   	animals2 	1	whale     	39	whale07     	396	alive    	1	moves	1	natural 	1	n	0	0    	 	0.0	0	125.413987	125.5139207	0.0999337
103140	100	148	stimuli\movNat\waves\mn_waves08.jpg              	1	2	1	mn_waves08.jpg       	movNat   	3	waves     	38	waves08     	387	not_alive	0	moves	1	natural 	1	n	0	0    	 	0.0	0	125.5639915	125.6639221	0.09993060000000001
103290	100	149	stimuli\nonmovArt\lock\nma_lock01.jpg            	1	2	1	nma_lock01.jpg       	nonmovArt	4	lock      	24	lock01      	240	not_alive	0	still	0	artefact	0	n	0	0    	 	0.0	0	125.71397479999999	125.8139152	0.0999404
103440	100	150	stimuli\nonmovNat\sand\nmn_sand09.jpg            	1	2	1	nmn_sand09.jpg       	nonmovNat	5	sand      	31	sand09      	318	not_alive	0	still	0	natural 	1	n	0	0    	 	0.0	0	125.86400220000002	125.96390359999998	0.0999013999999999
103590	100	151	stimuli\animals\horse\animal_horse01.jpg         	1	2	1	animal_horse01.jpg   	animals  	0	horse     	20	horse01     	200	alive    	1	moves	1	natural 	1	n	0	0    	 	0.0	0	126.01400579999999	126.11393079999999	0.099925
103740	100	152	stimuli\animals\cat\animal_cat04.jpg             	1	2	1	animal_cat04.jpg     	animals  	0	cat       	6	cat04       	63	alive    	1	moves	1	natural 	1	n	0	0    	 	0.0	0	126.16395829999999	126.26391409999998	0.0999558
103890	100	153	stimuli\plant\tree\plant_tree05.jpg              	1	2	1	plant_tree05.jpg     	plant    	6	tree      	35	tree05      	354	alive    	1	still	0	natural 	1	n	0	0    	 	0.0	0	126.31398090000002	126.4139162	0.0999353
104040	100	154	stimuli\plant2\moss\plant_moss01.jpg             	1	2	1	plant_moss01.jpg     	plant2   	7	moss      	25	moss01      	250	alive    	1	still	0	natural 	1	n	0	0    	 	0.0	0	126.4639795	126.5638969	0.0999174
104190	100	155	stimuli\animals\horse\animal_horse10.jpg         	1	2	1	animal_horse10.jpg   	animals  	0	horse     	20	horse10     	209	alive    	1	moves	1	natural 	1	n	0	0    	 	0.0	0	126.61400220000002	126.71391580000001	0.0999136
104340	100	156	stimuli\animals\eagle\animal_eagle05.jpg         	1	2	1	animal_eagle05.jpg   	animals  	0	eagle     	13	eagle05     	134	alive    	1	moves	1	natural 	1	n	0	0    	 	0.0	0	126.7639662	126.86390959999999	0.0999434
104490	100	157	stimuli\animals2\lemur\animal_lemur05.jpg        	1	2	1	animal_lemur05.jpg   	animals2 	1	lemur     	23	lemur05     	234	alive    	1	moves	1	natural 	1	n	0	0    	 	0.0	0	126.9139557	127.0139119	0.0999562
104640	100	158	stimuli\animals\dog\animal_dog08.jpg             	1	2	1	animal_dog08.jpg     	animals  	0	dog       	11	dog08       	117	alive    	1	moves	1	natural 	1	n	0	0    	 	0.0	0	127.06408	127.16390679999999	0.09982680000000001
104790	100	159	stimuli\plant\tree\plant_tree10.jpg              	1	2	1	plant_tree10.jpg     	plant    	6	tree      	35	tree10      	359	alive    	1	still	0	natural 	1	n	0	0    	 	0.0	0	127.2139763	127.3138976	0.0999213
110974	100	160	stimuli\plant2\clover\plant_clover03.jpg         	1	3	1	plant_clover03.jpg   	plant2   	7	clover    	9	clover03    	92	alive    	1	still	0	natural 	1	n	0	0    	 	0.0	0	133.39725959999998	133.497178	0.0999183999999999
111123	100	161	stimuli\plant2\clover\plant_clover08.jpg         	1	3	1	plant_clover08.jpg   	plant2   	7	clover    	9	clover08    	97	alive    	1	still	0	natural 	1	n	0	0    	 	0.0	0	133.5472473	133.64716570000002	0.0999183999999999
111273	100	162	stimuli\nonmovNat\crystal\nmn_crystal02.jpg      	1	3	1	nmn_crystal02.jpg    	nonmovNat	5	crystal   	10	crystal02   	101	not_alive	0	still	0	natural 	1	n	0	0    	 	0.0	0	133.6972514	133.7971742	0.0999228
111423	100	163	stimuli\movArt\helicopter\ma_helicopter09.jpg    	1	3	1	ma_helicopter09.jpg  	movArt   	2	helicopter	19	helicopter09	198	not_alive	0	moves	1	artefact	0	n	0	0    	 	0.0	0	133.84724440000002	133.94717690000002	0.09993250000000001
111573	100	164	stimuli\animals2\whale\animal_whale06.jpg        	1	3	1	animal_whale06.jpg   	animals2 	1	whale     	39	whale06     	395	alive    	1	moves	1	natural 	1	n	0	0    	 	0.0	0	133.9972463	134.0971626	0.0999163
111723	100	165	stimuli\movNat\fire\mn_fire05.jpg                	1	3	1	mn_fire05.jpg        	movNat   	3	fire      	15	fire05      	154	not_alive	0	moves	1	natural 	1	n	0	0    	 	0.0	0	134.1472466	134.2472697	0.10002310000000002
111874	100	166	stimuli\movNat\river\mn_river09.jpg              	1	3	1	mn_river09.jpg       	movNat   	3	river     	29	river09     	298	not_alive	0	moves	1	natural 	1	n	0	0    	 	0.0	0	134.2973482	134.3971647	0.0998165
112023	100	167	stimuli\plant\grass\plant_grass01.jpg            	1	3	1	plant_grass01.jpg    	plant    	6	grass     	17	grass01     	170	alive    	1	still	0	natural 	1	n	0	0    	 	0.0	0	134.44724130000003	134.54717649999998	0.0999352
112173	100	168	stimuli\plant2\palmtree\plant_palmtree06.jpg     	1	3	1	plant_palmtree06.jpg 	plant2   	7	palmtree  	27	palmtree06  	275	alive    	1	still	0	natural 	1	n	0	0    	 	0.0	0	134.5972415	134.6971497	0.0999082
112323	100	169	stimuli\plant\cactus\plant_cactus10.jpg          	1	3	1	plant_cactus10.jpg   	plant    	6	cactus    	4	cactus10    	49	alive    	1	still	0	natural 	1	n	0	0    	 	0.0	0	134.747231	134.8471492	0.0999182
112473	100	170	stimuli\animals2\tiger\animal_tiger10.jpg        	1	3	1	animal_tiger10.jpg   	animals2 	1	tiger     	33	tiger10     	339	alive    	1	moves	1	natural 	1	n	0	0    	 	0.0	0	134.8972325	134.9971524	0.0999198999999999
112623	100	171	stimuli\nonmovArt\clothespeg\nma_clothespeg10.jpg	1	3	1	nma_clothespeg10.jpg 	nonmovArt	4	clothespeg	8	clothespeg10	89	not_alive	0	still	0	artefact	0	n	0	0    	 	0.0	0	135.0472394	135.1471647	0.09992530000000001
112773	100	172	stimuli\movNat\hotspring\mn_hotspring07.jpg      	1	3	1	mn_hotspring07.jpg   	movNat   	3	hotspring 	21	hotspring07 	216	not_alive	0	moves	1	natural 	1	n	0	0    	 	0.0	0	135.1972375	135.2971593	0.0999218
112923	100	173	stimuli\nonmovArt\mug\nma_mug04.jpg              	1	3	1	nma_mug04.jpg        	nonmovArt	4	mug       	26	mug04       	263	not_alive	0	still	0	artefact	0	n	0	0    	 	0.0	0	135.34720959999999	135.44714960000002	0.09994
113073	100	174	stimuli\nonmovNat\shell\nmn_shell01.jpg          	1	3	1	nmn_shell01.jpg      	nonmovNat	5	shell     	32	shell01     	320	not_alive	0	still	0	natural 	1	n	0	0    	 	0.0	0	135.49723830000002	135.59715649999998	0.0999182
113223	100	175	stimuli\plant\vine\plant_vine06.jpg              	1	3	1	plant_vine06.jpg     	plant    	6	vine      	36	vine06      	365	alive    	1	still	0	natural 	1	n	0	0    	 	0.0	0	135.6472292	135.7472113	0.0999821
113373	100	176	stimuli\movNat\waterfall\mn_waterfall08.jpg      	1	3	1	mn_waterfall08.jpg   	movNat   	3	waterfall 	37	waterfall08 	377	not_alive	0	moves	1	natural 	1	n	0	0    	 	0.0	0	135.79723130000002	135.897203	0.0999717
113524	100	177	stimuli\movArt\train\ma_train01.jpg              	1	3	1	ma_train01.jpg       	movArt   	2	train     	34	train01     	340	not_alive	0	moves	1	artefact	0	n	0	0    	 	0.0	0	135.94725449999999	136.0472507	0.0999962
113674	100	178	stimuli\nonmovNat\shell\nmn_shell10.jpg          	1	3	1	nmn_shell10.jpg      	nonmovNat	5	shell     	32	shell10     	329	not_alive	0	still	0	natural 	1	n	0	0    	 	0.0	0	136.0972759	136.1972149	0.099939
113823	100	179	stimuli\plant2\lemontree\plant_lemontree02.jpg   	1	3	1	plant_lemontree02.jpg	plant2   	7	lemontree 	22	lemontree02 	221	alive    	1	still	0	natural 	1	n	0	0    	 	0.0	0	136.247224	136.3471582	0.0999342
113973	100	180	stimuli\movArt\bus\ma_bus05.jpg                  	1	3	1	ma_bus05.jpg         	movArt   	2	bus       	3	bus05       	34	not_alive	0	moves	1	artefact	0	n	0	0    	 	0.0	0	136.39721219999998	136.49714419999998	0.099932
114124	100	181	stimuli\nonmovArt\mug\nma_mug02.jpg              	1	3	1	nma_mug02.jpg        	nonmovArt	4	mug       	26	mug02       	261	not_alive	0	still	0	artefact	0	n	0	0    	 	0.0	0	136.54721990000002	136.6471405	0.0999206
114273	100	182	stimuli\nonmovNat\crystal\nmn_crystal02.jpg      	1	3	1	nmn_crystal02.jpg    	nonmovNat	5	crystal   	10	crystal02   	101	not_alive	0	still	0	natural 	1	n	0	0    	 	0.0	0	136.6972269	136.7971292	0.0999023
114423	100	183	stimuli\animals\dolphin\animal_dolphin02.jpg     	1	3	1	animal_dolphin02.jpg 	animals  	0	dolphin   	12	dolphin02   	121	alive    	1	moves	1	natural 	1	n	0	0    	 	0.0	0	136.847188	136.9471449	0.0999569
114573	100	184	stimuli\nonmovNat\rock\nmn_rock09.jpg            	1	3	1	nmn_rock09.jpg       	nonmovNat	5	rock      	30	rock09      	308	not_alive	0	still	0	natural 	1	n	0	0    	 	0.0	0	136.99720180000003	137.0971406	0.09993880000000001
114723	100	185	stimuli\nonmovArt\lock\nma_lock04.jpg            	1	3	1	nma_lock04.jpg       	nonmovArt	4	lock      	24	lock04      	243	not_alive	0	still	0	artefact	0	n	0	0    	 	0.0	0	137.14721619999997	137.247148	0.0999318
114873	100	186	stimuli\movArt\train\ma_train01.jpg              	1	3	1	ma_train01.jpg       	movArt   	2	train     	34	train01     	340	not_alive	0	moves	1	artefact	0	n	0	0    	 	0.0	0	137.2971992	137.3971387	0.0999395
115023	100	187	stimuli\movNat\hotspring\mn_hotspring05.jpg      	1	3	1	mn_hotspring05.jpg   	movNat   	3	hotspring 	21	hotspring05 	214	not_alive	0	moves	1	natural 	1	n	0	0    	 	0.0	0	137.44721940000002	137.5471219	0.0999024999999999
115173	100	188	stimuli\nonmovNat\cliff\nmn_cliff06.jpg          	1	3	1	nmn_cliff06.jpg      	nonmovNat	5	cliff     	7	cliff06     	75	not_alive	0	still	0	natural 	1	n	0	0    	 	0.0	0	137.5972024	137.6971405	0.0999381
115324	100	189	stimuli\plant\vine\plant_vine09.jpg              	1	3	1	plant_vine09.jpg     	plant    	6	vine      	36	vine09      	368	alive    	1	still	0	natural 	1	n	0	0    	 	0.0	0	137.7473531	137.84723400000001	0.0998809
115474	100	190	stimuli\nonmovNat\rock\nmn_rock07.jpg            	1	3	1	nmn_rock07.jpg       	nonmovNat	5	rock      	30	rock07      	306	not_alive	0	still	0	natural 	1	n	0	0    	 	0.0	0	137.89723859999998	137.99712759999997	0.099889
115623	100	191	stimuli\animals2\whale\animal_whale04.jpg        	1	3	1	animal_whale04.jpg   	animals2 	1	whale     	39	whale04     	393	alive    	1	moves	1	natural 	1	n	0	0    	 	0.0	0	138.0472065	138.1471237	0.0999172
115773	100	192	stimuli\movArt\train\ma_train05.jpg              	1	3	1	ma_train05.jpg       	movArt   	2	train     	34	train05     	344	not_alive	0	moves	1	artefact	0	n	0	0    	 	0.0	0	138.1972164	138.297133	0.09991660000000001
115923	100	193	stimuli\plant2\palmtree\plant_palmtree05.jpg     	1	3	1	plant_palmtree05.jpg 	plant2   	7	palmtree  	27	palmtree05  	274	alive    	1	still	0	natural 	1	n	0	0    	 	0.0	0	138.3471937	138.44712080000002	0.0999271
116073	100	194	stimuli\plant\flower\plant_flower08.jpg          	1	3	1	plant_flower08.jpg   	plant    	6	flower    	16	flower08    	167	alive    	1	still	0	natural 	1	n	0	0    	 	0.0	0	138.4972007	138.5971332	0.09993250000000001
116223	100	195	stimuli\movArt\car\ma_car06.jpg                  	1	3	1	ma_car06.jpg         	movArt   	2	car       	5	car06       	55	not_alive	0	moves	1	artefact	0	n	0	0    	 	0.0	0	138.64719780000001	138.7471206	0.0999228
116373	100	196	stimuli\animals2\bee\animal_bee03.jpg            	1	3	1	animal_bee03.jpg     	animals2 	1	bee       	0	bee03       	2	alive    	1	moves	1	natural 	1	n	0	0    	 	0.0	0	138.7971986	138.8971199	0.0999213
116523	100	197	stimuli\movArt\helicopter\ma_helicopter03.jpg    	1	3	1	ma_helicopter03.jpg  	movArt   	2	helicopter	19	helicopter03	192	not_alive	0	moves	1	artefact	0	n	0	0    	 	0.0	0	138.9472007	139.04713619999998	0.0999355
116674	100	198	stimuli\animals2\tiger\animal_tiger09.jpg        	1	3	1	animal_tiger09.jpg   	animals2 	1	tiger     	33	tiger09     	338	alive    	1	moves	1	natural 	1	n	0	0    	 	0.0	0	139.09722230000003	139.1971241	0.0999018
116823	100	199	stimuli\plant2\lemontree\plant_lemontree06.jpg   	1	3	1	plant_lemontree06.jpg	plant2   	7	lemontree 	22	lemontree06 	225	alive    	1	still	0	natural 	1	n	0	0    	 	0.0	0	139.247182	139.3470029	0.0998208999999999
116973	100	200	stimuli\movNat\waterfall\mn_waterfall09.jpg      	1	3	1	mn_waterfall09.jpg   	movNat   	3	waterfall 	37	waterfall09 	378	not_alive	0	moves	1	natural 	1	n	0	0    	 	0.0	0	139.3971993	139.4972191	0.10001979999999999
117124	100	201	stimuli\movArt\car\ma_car08.jpg                  	1	3	1	ma_car08.jpg         	movArt   	2	car       	5	car08       	57	not_alive	0	moves	1	artefact	0	n	0	0    	 	0.0	0	139.54738469999998	139.6472092	0.0998245
117274	100	202	stimuli\plant\cactus\plant_cactus08.jpg          	1	3	1	plant_cactus08.jpg   	plant    	6	cactus    	4	cactus08    	47	alive    	1	still	0	natural 	1	n	0	0    	 	0.0	0	139.6972971	139.7971045	0.0998073999999999
117423	100	203	stimuli\plant2\clover\plant_clover04.jpg         	1	3	1	plant_clover04.jpg   	plant2   	7	clover    	9	clover04    	93	alive    	1	still	0	natural 	1	n	0	0    	 	0.0	0	139.8471832	139.9471234	0.0999401999999999
117574	100	204	stimuli\movNat\waves\mn_waves01.jpg              	1	3	1	mn_waves01.jpg       	movNat   	3	waves     	38	waves01     	380	not_alive	0	moves	1	natural 	1	n	1	0    	 	0.0	0	139.99722649999998	140.0971185	0.099892
117723	100	205	stimuli\nonmovArt\mug\nma_mug04.jpg              	1	3	1	nma_mug04.jpg        	nonmovArt	4	mug       	26	mug04       	263	not_alive	0	still	0	artefact	0	n	0	0    	 	0.0	0	140.147201	140.2471171	0.09991610000000001
117873	100	206	stimuli\nonmovArt\bench\nma_bench05.jpg          	1	3	1	nma_bench05.jpg      	nonmovArt	4	bench     	1	bench05     	14	not_alive	0	still	0	artefact	0	n	0	1    	f	0.39197790000000005	1	140.297202	140.3971123	0.09991030000000001
118024	100	207	stimuli\animals2\lemur\animal_lemur03.jpg        	1	3	1	animal_lemur03.jpg   	animals2 	1	lemur     	23	lemur03     	232	alive    	1	moves	1	natural 	1	n	0	0    	 	0.0	0	140.4472073	140.54711709999998	0.0999098
118174	100	208	stimuli\movArt\bus\ma_bus01.jpg                  	1	3	1	ma_bus01.jpg         	movArt   	2	bus       	3	bus01       	30	not_alive	0	moves	1	artefact	0	n	0	0    	 	0.0	0	140.5972257	140.69709709999998	0.0998714
118323	100	209	stimuli\nonmovNat\shell\nmn_shell01.jpg          	1	3	1	nmn_shell01.jpg      	nonmovNat	5	shell     	32	shell01     	320	not_alive	0	still	0	natural 	1	n	0	0    	 	0.0	0	140.7471794	140.8470956	0.0999162
118473	100	210	stimuli\movNat\fire\mn_fire08.jpg                	1	3	1	mn_fire08.jpg        	movNat   	3	fire      	15	fire08      	157	not_alive	0	moves	1	natural 	1	n	0	0    	 	0.0	0	140.8971849	140.99708969999998	0.0999048
118623	100	211	stimuli\movNat\waterfall\mn_waterfall02.jpg      	1	3	1	mn_waterfall02.jpg   	movNat   	3	waterfall 	37	waterfall02 	371	not_alive	0	moves	1	natural 	1	n	1	0    	 	0.0	0	141.0471805	141.1470983	0.0999178
118773	100	212	stimuli\plant2\lemontree\plant_lemontree01.jpg   	1	3	1	plant_lemontree01.jpg	plant2   	7	lemontree 	22	lemontree01 	220	alive    	1	still	0	natural 	1	n	0	0    	 	0.0	0	141.19717350000002	141.29709880000001	0.09992530000000001
118924	100	213	stimuli\nonmovArt\lock\nma_lock05.jpg            	1	3	1	nma_lock05.jpg       	nonmovArt	4	lock      	24	lock05      	244	not_alive	0	still	0	artefact	0	n	0	1    	f	0.2920968	1	141.3472804	141.4471483	0.0998679
119073	100	214	stimuli\animals2\lemur\animal_lemur06.jpg        	1	3	1	animal_lemur06.jpg   	animals2 	1	lemur     	23	lemur06     	235	alive    	1	moves	1	natural 	1	n	0	0    	 	0.0	0	141.4971601	141.5970954	0.0999353
119223	100	215	stimuli\plant2\palmtree\plant_palmtree04.jpg     	1	3	1	plant_palmtree04.jpg 	plant2   	7	palmtree  	27	palmtree04  	273	alive    	1	still	0	natural 	1	n	0	0    	 	0.0	0	141.6471681	141.74708069999997	0.0999126
119373	100	216	stimuli\animals2\pigeon\animal_pigeon04.jpg      	1	3	1	animal_pigeon04.jpg  	animals2 	1	pigeon    	28	pigeon04    	283	alive    	1	moves	1	natural 	1	n	0	0    	 	0.0	0	141.7971626	141.89708380000002	0.0999212
119523	100	217	stimuli\nonmovNat\cliff\nmn_cliff10.jpg          	1	3	1	nmn_cliff10.jpg      	nonmovNat	5	cliff     	7	cliff10     	79	not_alive	0	still	0	natural 	1	n	0	0    	 	0.0	0	141.94716269999998	142.0470764	0.0999137
119673	100	218	stimuli\plant\flower\plant_flower02.jpg          	1	3	1	plant_flower02.jpg   	plant    	6	flower    	16	flower02    	161	alive    	1	still	0	natural 	1	n	0	0    	 	0.0	0	142.09717080000001	142.19708630000002	0.0999154999999999
119823	100	219	stimuli\plant2\fern\plant_fern01.jpg             	1	3	1	plant_fern01.jpg     	plant2   	7	fern      	14	fern01      	140	alive    	1	still	0	natural 	1	n	0	0    	 	0.0	0	142.24718159999998	142.34709019999997	0.0999086
119973	100	220	stimuli\animals\eagle\animal_eagle07.jpg         	1	3	1	animal_eagle07.jpg   	animals  	0	eagle     	13	eagle07     	136	alive    	1	moves	1	natural 	1	n	0	0    	 	0.0	0	142.39716069999997	142.4970793	0.09991860000000001
120123	100	221	stimuli\animals\cat\animal_cat07.jpg             	1	3	1	animal_cat07.jpg     	animals  	0	cat       	6	cat07       	66	alive    	1	moves	1	natural 	1	n	0	0    	 	0.0	0	142.5471532	142.6470642	0.099911
120273	100	222	stimuli\nonmovNat\crystal\nmn_crystal01.jpg      	1	3	1	nmn_crystal01.jpg    	nonmovNat	5	crystal   	10	crystal01   	100	not_alive	0	still	0	natural 	1	n	0	0    	 	0.0	0	142.69715290000002	142.79708490000002	0.099932
120423	100	223	stimuli\animals\cat\animal_cat08.jpg             	1	3	1	animal_cat08.jpg     	animals  	0	cat       	6	cat08       	67	alive    	1	moves	1	natural 	1	n	0	0    	 	0.0	0	142.8471479	142.94704230000002	0.0998944
120573	100	224	stimuli\movNat\river\mn_river01.jpg              	1	3	1	mn_river01.jpg       	movNat   	3	river     	29	river01     	290	not_alive	0	moves	1	natural 	1	n	0	0    	 	0.0	0	142.99715759999998	143.0970927	0.09993510000000001
120724	100	225	stimuli\movArt\car\ma_car09.jpg                  	1	3	1	ma_car09.jpg         	movArt   	2	car       	5	car09       	58	not_alive	0	moves	1	artefact	0	n	0	0    	 	0.0	0	143.1472667	143.2470668	0.0998001
120873	100	226	stimuli\movArt\boat\ma_boat05.jpg                	1	3	1	ma_boat05.jpg        	movArt   	2	boat      	2	boat05      	24	not_alive	0	moves	1	artefact	0	n	0	0    	 	0.0	0	143.2971496	143.39706930000003	0.0999197
121023	100	227	stimuli\nonmovArt\clothespeg\nma_clothespeg09.jpg	1	3	1	nma_clothespeg09.jpg 	nonmovArt	4	clothespeg	8	clothespeg09	88	not_alive	0	still	0	artefact	0	n	0	0    	 	0.0	0	143.4471489	143.5470603	0.0999114
121173	100	228	stimuli\movNat\waves\mn_waves07.jpg              	1	3	1	mn_waves07.jpg       	movNat   	3	waves     	38	waves07     	386	not_alive	0	moves	1	natural 	1	n	0	0    	 	0.0	0	143.5971466	143.6970559	0.0999093
121323	100	229	stimuli\animals2\bee\animal_bee01.jpg            	1	3	1	animal_bee01.jpg     	animals2 	1	bee       	0	bee01       	0	alive    	1	moves	1	natural 	1	n	0	0    	 	0.0	0	143.7471475	143.8470667	0.0999192
121473	100	230	stimuli\nonmovArt\bench\nma_bench06.jpg          	1	3	1	nma_bench06.jpg      	nonmovArt	4	bench     	1	bench06     	15	not_alive	0	still	0	artefact	0	n	0	0    	 	0.0	0	143.897152	143.997065	0.099913
121623	100	231	stimuli\plant2\fern\plant_fern03.jpg             	1	3	1	plant_fern03.jpg     	plant2   	7	fern      	14	fern03      	142	alive    	1	still	0	natural 	1	n	0	0    	 	0.0	0	144.0471451	144.1470661	0.09992100000000001
121773	100	232	stimuli\plant\vine\plant_vine04.jpg              	1	3	1	plant_vine04.jpg     	plant    	6	vine      	36	vine04      	363	alive    	1	still	0	natural 	1	n	0	0    	 	0.0	0	144.19713810000002	144.2970506	0.0999125
121923	100	233	stimuli\animals\dog\animal_dog07.jpg             	1	3	1	animal_dog07.jpg     	animals  	0	dog       	11	dog07       	116	alive    	1	moves	1	natural 	1	n	0	0    	 	0.0	0	144.3471445	144.4470603	0.0999158
122073	100	234	stimuli\movArt\boat\ma_boat01.jpg                	1	3	1	ma_boat01.jpg        	movArt   	2	boat      	2	boat01      	20	not_alive	0	moves	1	artefact	0	n	0	0    	 	0.0	0	144.4971606	144.59705319999998	0.0998926
122223	100	235	stimuli\nonmovArt\bench\nma_bench10.jpg          	1	3	1	nma_bench10.jpg      	nonmovArt	4	bench     	1	bench10     	19	not_alive	0	still	0	artefact	0	n	0	0    	 	0.0	0	144.64713559999998	144.7470677	0.0999321
122373	100	236	stimuli\animals\horse\animal_horse02.jpg         	1	3	1	animal_horse02.jpg   	animals  	0	horse     	20	horse02     	201	alive    	1	moves	1	natural 	1	n	0	0    	 	0.0	0	144.79713950000001	144.8970642	0.0999246999999999
122524	100	237	stimuli\animals2\pigeon\animal_pigeon07.jpg      	1	3	1	animal_pigeon07.jpg  	animals2 	1	pigeon    	28	pigeon07    	286	alive    	1	moves	1	natural 	1	n	0	0    	 	0.0	0	144.9472279	145.0470576	0.09982970000000001
122673	100	238	stimuli\animals\eagle\animal_eagle03.jpg         	1	3	1	animal_eagle03.jpg   	animals  	0	eagle     	13	eagle03     	132	alive    	1	moves	1	natural 	1	n	0	0    	 	0.0	0	145.09713359999998	145.1970544	0.0999208
122823	100	239	stimuli\nonmovNat\cliff\nmn_cliff08.jpg          	1	3	1	nmn_cliff08.jpg      	nonmovNat	5	cliff     	7	cliff08     	77	not_alive	0	still	0	natural 	1	n	0	0    	 	0.0	0	145.2471292	145.3470533	0.09992410000000002
126139	100	240	stimuli\plant\vine\plant_vine10.jpg              	1	4	1	plant_vine10.jpg     	plant    	6	vine      	36	vine10      	369	alive    	1	still	0	natural 	1	n	0	0    	 	0.0	0	148.5629276	148.6629112	0.0999836
126289	100	241	stimuli\nonmovNat\cliff\nmn_cliff03.jpg          	1	4	1	nmn_cliff03.jpg      	nonmovNat	5	cliff     	7	cliff03     	72	not_alive	0	still	0	natural 	1	n	0	0    	 	0.0	0	148.7129206	148.8129103	0.0999896999999999
126439	100	242	stimuli\plant\vine\plant_vine09.jpg              	1	4	1	plant_vine09.jpg     	plant    	6	vine      	36	vine09      	368	alive    	1	still	0	natural 	1	n	0	0    	 	0.0	0	148.862918	148.9629375	0.10001950000000001
126589	100	243	stimuli\plant2\palmtree\plant_palmtree02.jpg     	1	4	1	plant_palmtree02.jpg 	plant2   	7	palmtree  	27	palmtree02  	271	alive    	1	still	0	natural 	1	n	0	0    	 	0.0	0	149.01291809999998	149.1129084	0.0999903
126739	100	244	stimuli\movNat\waves\mn_waves09.jpg              	1	4	1	mn_waves09.jpg       	movNat   	3	waves     	38	waves09     	388	not_alive	0	moves	1	natural 	1	n	0	0    	 	0.0	0	149.1629246	149.2629045	0.0999799
126889	100	245	stimuli\movArt\car\ma_car03.jpg                  	1	4	1	ma_car03.jpg         	movArt   	2	car       	5	car03       	52	not_alive	0	moves	1	artefact	0	n	0	0    	 	0.0	0	149.3129125	149.4129024	0.0999898999999999
127039	100	246	stimuli\animals\cat\animal_cat10.jpg             	1	4	1	animal_cat10.jpg     	animals  	0	cat       	6	cat10       	69	alive    	1	moves	1	natural 	1	n	0	0    	 	0.0	0	149.4629186	149.56290159999998	0.099983
127189	100	247	stimuli\movArt\bus\ma_bus03.jpg                  	1	4	1	ma_bus03.jpg         	movArt   	2	bus       	3	bus03       	32	not_alive	0	moves	1	artefact	0	n	0	0    	 	0.0	0	149.61292230000004	149.71291169999998	0.0999893999999999
127339	100	248	stimuli\plant\flower\plant_flower03.jpg          	1	4	1	plant_flower03.jpg   	plant    	6	flower    	16	flower03    	162	alive    	1	still	0	natural 	1	n	0	0    	 	0.0	0	149.76290930000002	149.8628972	0.0999878999999999
127489	100	249	stimuli\plant\flower\plant_flower02.jpg          	1	4	1	plant_flower02.jpg   	plant    	6	flower    	16	flower02    	161	alive    	1	still	0	natural 	1	n	0	0    	 	0.0	0	149.9129063	150.0129011	0.0999948
127639	100	250	stimuli\animals2\tiger\animal_tiger09.jpg        	1	4	1	animal_tiger09.jpg   	animals2 	1	tiger     	33	tiger09     	338	alive    	1	moves	1	natural 	1	n	0	0    	 	0.0	0	150.06290890000002	150.1629109	0.100002
127789	100	251	stimuli\movArt\bus\ma_bus09.jpg                  	1	4	1	ma_bus09.jpg         	movArt   	2	bus       	3	bus09       	38	not_alive	0	moves	1	artefact	0	n	0	0    	 	0.0	0	150.2129042	150.312893	0.0999888
127939	100	252	stimuli\movNat\river\mn_river04.jpg              	1	4	1	mn_river04.jpg       	movNat   	3	river     	29	river04     	293	not_alive	0	moves	1	natural 	1	n	0	0    	 	0.0	0	150.3629005	150.4629194	0.1000189
128089	100	253	stimuli\plant\tree\plant_tree03.jpg              	1	4	1	plant_tree03.jpg     	plant    	6	tree      	35	tree03      	352	alive    	1	still	0	natural 	1	n	0	0    	 	0.0	0	150.5129013	150.61289140000002	0.09999010000000001
128239	100	254	stimuli\plant\tree\plant_tree07.jpg              	1	4	1	plant_tree07.jpg     	plant    	6	tree      	35	tree07      	356	alive    	1	still	0	natural 	1	n	0	0    	 	0.0	0	150.6629015	150.7629136	0.1000121
128389	100	255	stimuli\plant\cactus\plant_cactus02.jpg          	1	4	1	plant_cactus02.jpg   	plant    	6	cactus    	4	cactus02    	41	alive    	1	still	0	natural 	1	n	0	0    	 	0.0	0	150.8128986	150.91289009999997	0.0999915
128539	100	256	stimuli\plant2\fern\plant_fern06.jpg             	1	4	1	plant_fern06.jpg     	plant2   	7	fern      	14	fern06      	145	alive    	1	still	0	natural 	1	n	0	0    	 	0.0	0	150.9628978	151.0628888	0.099991
128689	100	257	stimuli\nonmovArt\bench\nma_bench03.jpg          	1	4	1	nma_bench03.jpg      	nonmovArt	4	bench     	1	bench03     	12	not_alive	0	still	0	artefact	0	n	0	0    	 	0.0	0	151.1128961	151.2128837	0.09998760000000001
128839	100	258	stimuli\plant2\moss\plant_moss03.jpg             	1	4	1	plant_moss03.jpg     	plant2   	7	moss      	25	moss03      	252	alive    	1	still	0	natural 	1	n	0	0    	 	0.0	0	151.2628946	151.3628847	0.09999010000000001
128989	100	259	stimuli\movNat\waves\mn_waves06.jpg              	1	4	1	mn_waves06.jpg       	movNat   	3	waves     	38	waves06     	385	not_alive	0	moves	1	natural 	1	n	0	0    	 	0.0	0	151.4128912	151.51288300000002	0.0999918
129139	100	260	stimuli\animals\dolphin\animal_dolphin04.jpg     	1	4	1	animal_dolphin04.jpg 	animals  	0	dolphin   	12	dolphin04   	123	alive    	1	moves	1	natural 	1	n	0	0    	 	0.0	0	151.562893	151.6628808	0.0999878
129289	100	261	stimuli\movArt\helicopter\ma_helicopter05.jpg    	1	4	1	ma_helicopter05.jpg  	movArt   	2	helicopter	19	helicopter05	194	not_alive	0	moves	1	artefact	0	n	0	0    	 	0.0	0	151.712888	151.81287969999997	0.0999916999999999
129439	100	262	stimuli\animals\horse\animal_horse10.jpg         	1	4	1	animal_horse10.jpg   	animals  	0	horse     	20	horse10     	209	alive    	1	moves	1	natural 	1	n	0	0    	 	0.0	0	151.8629018	151.9628874	0.09998560000000001
129589	100	263	stimuli\movNat\waterfall\mn_waterfall10.jpg      	1	4	1	mn_waterfall10.jpg   	movNat   	3	waterfall 	37	waterfall10 	379	not_alive	0	moves	1	natural 	1	n	0	0    	 	0.0	0	152.01288459999998	152.1128779	0.0999933
129739	100	264	stimuli\plant\vine\plant_vine07.jpg              	1	4	1	plant_vine07.jpg     	plant    	6	vine      	36	vine07      	366	alive    	1	still	0	natural 	1	n	0	0    	 	0.0	0	152.16288490000002	152.2628747	0.0999898
129889	100	265	stimuli\animals\horse\animal_horse09.jpg         	1	4	1	animal_horse09.jpg   	animals  	0	horse     	20	horse09     	208	alive    	1	moves	1	natural 	1	n	1	0    	 	0.0	0	152.3128827	152.41287340000002	0.0999906999999999
130039	100	266	stimuli\movNat\fire\mn_fire09.jpg                	1	4	1	mn_fire09.jpg        	movNat   	3	fire      	15	fire09      	158	not_alive	0	moves	1	natural 	1	n	0	0    	 	0.0	0	152.46292	152.56287319999998	0.0999531999999999
130189	100	267	stimuli\animals2\whale\animal_whale02.jpg        	1	4	1	animal_whale02.jpg   	animals2 	1	whale     	39	whale02     	391	alive    	1	moves	1	natural 	1	n	0	1    	f	0.39197909999999997	1	152.6128805	152.7128732	0.0999927
130339	100	268	stimuli\movArt\boat\ma_boat03.jpg                	1	4	1	ma_boat03.jpg        	movArt   	2	boat      	2	boat03      	22	not_alive	0	moves	1	artefact	0	n	0	0    	 	0.0	0	152.762879	152.86287009999998	0.0999911
130489	100	269	stimuli\nonmovArt\clothespeg\nma_clothespeg06.jpg	1	4	1	nma_clothespeg06.jpg 	nonmovArt	4	clothespeg	8	clothespeg06	85	not_alive	0	still	0	artefact	0	n	0	0    	 	0.0	0	152.91287519999997	153.0128688	0.0999936
130639	100	270	stimuli\animals\eagle\animal_eagle06.jpg         	1	4	1	animal_eagle06.jpg   	animals  	0	eagle     	13	eagle06     	135	alive    	1	moves	1	natural 	1	n	0	0    	 	0.0	0	153.06287659999998	153.1628131	0.0999365
130789	100	271	stimuli\plant2\palmtree\plant_palmtree02.jpg     	1	4	1	plant_palmtree02.jpg 	plant2   	7	palmtree  	27	palmtree02  	271	alive    	1	still	0	natural 	1	n	0	0    	 	0.0	0	153.2128629	153.3128517	0.0999888
130939	100	272	stimuli\movNat\fire\mn_fire10.jpg                	1	4	1	mn_fire10.jpg        	movNat   	3	fire      	15	fire10      	159	not_alive	0	moves	1	natural 	1	n	1	0    	 	0.0	0	153.36285890000002	153.4628486	0.0999896999999999
131089	100	273	stimuli\nonmovArt\bench\nma_bench06.jpg          	1	4	1	nma_bench06.jpg      	nonmovArt	4	bench     	1	bench06     	15	not_alive	0	still	0	artefact	0	n	0	0    	 	0.0	0	153.5128566	153.6128531	0.0999965
131239	100	274	stimuli\animals\dog\animal_dog08.jpg             	1	4	1	animal_dog08.jpg     	animals  	0	dog       	11	dog08       	117	alive    	1	moves	1	natural 	1	n	0	1    	f	0.29214120000000005	1	153.66285530000002	153.7628468	0.0999915
131389	100	275	stimuli\nonmovArt\clothespeg\nma_clothespeg04.jpg	1	4	1	nma_clothespeg04.jpg 	nonmovArt	4	clothespeg	8	clothespeg04	83	not_alive	0	still	0	artefact	0	n	0	0    	 	0.0	0	153.8128554	153.912846	0.09999060000000001
131539	100	276	stimuli\plant2\palmtree\plant_palmtree09.jpg     	1	4	1	plant_palmtree09.jpg 	plant2   	7	palmtree  	27	palmtree09  	278	alive    	1	still	0	natural 	1	n	0	0    	 	0.0	0	153.96286	154.0628457	0.0999857
131689	100	277	stimuli\movNat\waterfall\mn_waterfall09.jpg      	1	4	1	mn_waterfall09.jpg   	movNat   	3	waterfall 	37	waterfall09 	378	not_alive	0	moves	1	natural 	1	n	0	0    	 	0.0	0	154.1128574	154.2128405	0.0999831
131839	100	278	stimuli\animals2\tiger\animal_tiger04.jpg        	1	4	1	animal_tiger04.jpg   	animals2 	1	tiger     	33	tiger04     	333	alive    	1	moves	1	natural 	1	n	0	0    	 	0.0	0	154.26285780000003	154.3628869	0.10002910000000001
131989	100	279	stimuli\plant2\fern\plant_fern05.jpg             	1	4	1	plant_fern05.jpg     	plant2   	7	fern      	14	fern05      	144	alive    	1	still	0	natural 	1	n	0	0    	 	0.0	0	154.4128694	154.512843	0.09997360000000001
132139	100	280	stimuli\nonmovArt\mug\nma_mug03.jpg              	1	4	1	nma_mug03.jpg        	nonmovArt	4	mug       	26	mug03       	262	not_alive	0	still	0	artefact	0	n	0	0    	 	0.0	0	154.5628534	154.6628416	0.0999882
132289	100	281	stimuli\movArt\helicopter\ma_helicopter06.jpg    	1	4	1	ma_helicopter06.jpg  	movArt   	2	helicopter	19	helicopter06	195	not_alive	0	moves	1	artefact	0	n	0	0    	 	0.0	0	154.71284530000003	154.8128365	0.0999911999999999
132439	100	282	stimuli\nonmovNat\rock\nmn_rock04.jpg            	1	4	1	nmn_rock04.jpg       	nonmovNat	5	rock      	30	rock04      	303	not_alive	0	still	0	natural 	1	n	0	0    	 	0.0	0	154.8628429	154.96283459999998	0.0999916999999999
132589	100	283	stimuli\nonmovNat\rock\nmn_rock01.jpg            	1	4	1	nmn_rock01.jpg       	nonmovNat	5	rock      	30	rock01      	300	not_alive	0	still	0	natural 	1	n	0	0    	 	0.0	0	155.01284040000002	155.112832	0.0999916
132739	100	284	stimuli\plant2\lemontree\plant_lemontree08.jpg   	1	4	1	plant_lemontree08.jpg	plant2   	7	lemontree 	22	lemontree08 	227	alive    	1	still	0	natural 	1	n	0	0    	 	0.0	0	155.16284119999997	155.2628309	0.0999896999999999
132889	100	285	stimuli\animals\horse\animal_horse08.jpg         	1	4	1	animal_horse08.jpg   	animals  	0	horse     	20	horse08     	207	alive    	1	moves	1	natural 	1	n	0	0    	 	0.0	0	155.3128418	155.4128356	0.0999938
133039	100	286	stimuli\animals2\bee\animal_bee04.jpg            	1	4	1	animal_bee04.jpg     	animals2 	1	bee       	0	bee04       	3	alive    	1	moves	1	natural 	1	n	0	0    	 	0.0	0	155.4628378	155.5628286	0.0999908
133189	100	287	stimuli\plant2\clover\plant_clover02.jpg         	1	4	1	plant_clover02.jpg   	plant2   	7	clover    	9	clover02    	91	alive    	1	still	0	natural 	1	n	0	0    	 	0.0	0	155.6128395	155.7128259	0.0999863999999999
133339	100	288	stimuli\plant\grass\plant_grass10.jpg            	1	4	1	plant_grass10.jpg    	plant    	6	grass     	17	grass10     	179	alive    	1	still	0	natural 	1	n	0	0    	 	0.0	0	155.76283840000002	155.86282980000001	0.0999914
133489	100	289	stimuli\movArt\boat\ma_boat07.jpg                	1	4	1	ma_boat07.jpg        	movArt   	2	boat      	2	boat07      	26	not_alive	0	moves	1	artefact	0	n	0	0    	 	0.0	0	155.91283130000002	156.0128309	0.09999960000000001
133639	100	290	stimuli\animals2\whale\animal_whale02.jpg        	1	4	1	animal_whale02.jpg   	animals2 	1	whale     	39	whale02     	391	alive    	1	moves	1	natural 	1	n	0	0    	 	0.0	0	156.0628396	156.1628702	0.1000306
133789	100	291	stimuli\animals2\bee\animal_bee03.jpg            	1	4	1	animal_bee03.jpg     	animals2 	1	bee       	0	bee03       	2	alive    	1	moves	1	natural 	1	n	0	0    	 	0.0	0	156.21283380000003	156.312826	0.0999922
133939	100	292	stimuli\nonmovNat\crystal\nmn_crystal01.jpg      	1	4	1	nmn_crystal01.jpg    	nonmovNat	5	crystal   	10	crystal01   	100	not_alive	0	still	0	natural 	1	n	0	0    	 	0.0	0	156.3628302	156.4628237	0.0999935
134089	100	293	stimuli\animals\dog\animal_dog02.jpg             	1	4	1	animal_dog02.jpg     	animals  	0	dog       	11	dog02       	111	alive    	1	moves	1	natural 	1	n	0	0    	 	0.0	0	156.512828	156.61281830000001	0.0999903
134239	100	294	stimuli\nonmovArt\bench\nma_bench08.jpg          	1	4	1	nma_bench08.jpg      	nonmovArt	4	bench     	1	bench08     	17	not_alive	0	still	0	artefact	0	n	0	0    	 	0.0	0	156.6628322	156.7628148	0.0999826
134389	100	295	stimuli\plant\cactus\plant_cactus10.jpg          	1	4	1	plant_cactus10.jpg   	plant    	6	cactus    	4	cactus10    	49	alive    	1	still	0	natural 	1	n	0	0    	 	0.0	0	156.8128255	156.9128054	0.0999799
134539	100	296	stimuli\movArt\train\ma_train04.jpg              	1	4	1	ma_train04.jpg       	movArt   	2	train     	34	train04     	343	not_alive	0	moves	1	artefact	0	n	0	0    	 	0.0	0	156.962822	157.0628163	0.0999943
134689	100	297	stimuli\animals\cat\animal_cat03.jpg             	1	4	1	animal_cat03.jpg     	animals  	0	cat       	6	cat03       	62	alive    	1	moves	1	natural 	1	n	1	0    	 	0.0	0	157.1128216	157.212816	0.0999944
134839	100	298	stimuli\nonmovNat\sand\nmn_sand03.jpg            	1	4	1	nmn_sand03.jpg       	nonmovNat	5	sand      	31	sand03      	312	not_alive	0	still	0	natural 	1	n	0	0    	 	0.0	0	157.2628325	157.3628081	0.09997560000000001
134989	100	299	stimuli\nonmovArt\mug\nma_mug10.jpg              	1	4	1	nma_mug10.jpg        	nonmovArt	4	mug       	26	mug10       	269	not_alive	0	still	0	artefact	0	n	0	0    	 	0.0	0	157.4128227	157.5128085	0.0999858
135139	100	300	stimuli\nonmovNat\shell\nmn_shell08.jpg          	1	4	1	nmn_shell08.jpg      	nonmovNat	5	shell     	32	shell08     	327	not_alive	0	still	0	natural 	1	n	0	1    	f	0.4421198	1	157.56281840000003	157.66280780000002	0.0999893999999999
135289	100	301	stimuli\animals2\pigeon\animal_pigeon05.jpg      	1	4	1	animal_pigeon05.jpg  	animals2 	1	pigeon    	28	pigeon05    	284	alive    	1	moves	1	natural 	1	n	0	0    	 	0.0	0	157.7128166	157.8128132	0.0999966
135439	100	302	stimuli\movNat\fire\mn_fire01.jpg                	1	4	1	mn_fire01.jpg        	movNat   	3	fire      	15	fire01      	150	not_alive	0	moves	1	natural 	1	n	0	0    	 	0.0	0	157.8628132	157.9628253	0.1000121
135589	100	303	stimuli\plant2\fern\plant_fern10.jpg             	1	4	1	plant_fern10.jpg     	plant2   	7	fern      	14	fern10      	149	alive    	1	still	0	natural 	1	n	0	0    	 	0.0	0	158.0128189	158.1128081	0.0999892
135739	100	304	stimuli\animals2\whale\animal_whale10.jpg        	1	4	1	animal_whale10.jpg   	animals2 	1	whale     	39	whale10     	399	alive    	1	moves	1	natural 	1	n	0	0    	 	0.0	0	158.16281659999999	158.26280319999998	0.09998660000000001
135889	100	305	stimuli\animals\cat\animal_cat04.jpg             	1	4	1	animal_cat04.jpg     	animals  	0	cat       	6	cat04       	63	alive    	1	moves	1	natural 	1	n	0	0    	 	0.0	0	158.3128149	158.4128002	0.09998530000000001
136039	100	306	stimuli\nonmovNat\shell\nmn_shell09.jpg          	1	4	1	nmn_shell09.jpg      	nonmovNat	5	shell     	32	shell09     	328	not_alive	0	still	0	natural 	1	n	0	0    	 	0.0	0	158.4628174	158.56279750000002	0.0999801
136189	100	307	stimuli\nonmovArt\headphones\nma_headphones09.jpg	1	4	1	nma_headphones09.jpg 	nonmovArt	4	headphones	18	headphones09	188	not_alive	0	still	0	artefact	0	n	0	0    	 	0.0	0	158.61280530000002	158.71280380000002	0.0999985
136339	100	308	stimuli\movArt\car\ma_car04.jpg                  	1	4	1	ma_car04.jpg         	movArt   	2	car       	5	car04       	53	not_alive	0	moves	1	artefact	0	n	0	0    	 	0.0	0	158.76280690000002	158.86280269999997	0.09999580000000001
136489	100	309	stimuli\plant\cactus\plant_cactus05.jpg          	1	4	1	plant_cactus05.jpg   	plant    	6	cactus    	4	cactus05    	44	alive    	1	still	0	natural 	1	n	0	0    	 	0.0	0	158.912804	159.01280469999998	0.1000007
136639	100	310	stimuli\plant\grass\plant_grass04.jpg            	1	4	1	plant_grass04.jpg    	plant    	6	grass     	17	grass04     	173	alive    	1	still	0	natural 	1	n	0	0    	 	0.0	0	159.0627967	159.1627959	0.0999992
136789	100	311	stimuli\animals2\tiger\animal_tiger09.jpg        	1	4	1	animal_tiger09.jpg   	animals2 	1	tiger     	33	tiger09     	338	alive    	1	moves	1	natural 	1	n	0	0    	 	0.0	0	159.212803	159.3127956	0.0999926
136939	100	312	stimuli\movNat\river\mn_river08.jpg              	1	4	1	mn_river08.jpg       	movNat   	3	river     	29	river08     	297	not_alive	0	moves	1	natural 	1	n	0	0    	 	0.0	0	159.3628005	159.46279619999999	0.0999956999999999
137089	100	313	stimuli\movNat\waves\mn_waves04.jpg              	1	4	1	mn_waves04.jpg       	movNat   	3	waves     	38	waves04     	383	not_alive	0	moves	1	natural 	1	n	0	0    	 	0.0	0	159.51279780000002	159.6137087	0.1009109
137240	100	314	stimuli\movArt\train\ma_train03.jpg              	1	4	1	ma_train03.jpg       	movArt   	2	train     	34	train03     	342	not_alive	0	moves	1	artefact	0	n	0	0    	 	0.0	0	159.6637649	159.7636414	0.0998765
137390	100	315	stimuli\movNat\river\mn_river10.jpg              	1	4	1	mn_river10.jpg       	movNat   	3	river     	29	river10     	299	not_alive	0	moves	1	natural 	1	n	0	0    	 	0.0	0	159.8136689	159.91358449999998	0.09991560000000001
137540	100	316	stimuli\movNat\hotspring\mn_hotspring10.jpg      	1	4	1	mn_hotspring10.jpg   	movNat   	3	hotspring 	21	hotspring10 	219	not_alive	0	moves	1	natural 	1	n	0	0    	 	0.0	0	159.96366310000002	160.0636137	0.09995060000000001
137690	100	317	stimuli\nonmovNat\cliff\nmn_cliff04.jpg          	1	4	1	nmn_cliff04.jpg      	nonmovNat	5	cliff     	7	cliff04     	73	not_alive	0	still	0	natural 	1	n	0	0    	 	0.0	0	160.1136733	160.2136115	0.0999381999999999
137840	100	318	stimuli\animals\dolphin\animal_dolphin09.jpg     	1	4	1	animal_dolphin09.jpg 	animals  	0	dolphin   	12	dolphin09   	128	alive    	1	moves	1	natural 	1	n	0	0    	 	0.0	0	160.2636678	160.3636031	0.0999353
137990	100	319	stimuli\animals2\lemur\animal_lemur07.jpg        	1	4	1	animal_lemur07.jpg   	animals2 	1	lemur     	23	lemur07     	236	alive    	1	moves	1	natural 	1	n	0	0    	 	0.0	0	160.4136647	160.5136042	0.0999395
144423	100	320	stimuli\animals2\bee\animal_bee05.jpg            	1	5	1	animal_bee05.jpg     	animals2 	1	bee       	0	bee05       	4	alive    	1	moves	1	natural 	1	n	0	0    	 	0.0	0	166.8470021	166.9467192	0.0997171
144574	100	321	stimuli\nonmovArt\lock\nma_lock05.jpg            	1	5	1	nma_lock05.jpg       	nonmovArt	4	lock      	24	lock05      	244	not_alive	0	still	0	artefact	0	n	0	0    	 	0.0	0	166.99709209999997	167.09684119999997	0.09974910000000001
144723	100	322	stimuli\animals2\pigeon\animal_pigeon05.jpg      	1	5	1	animal_pigeon05.jpg  	animals2 	1	pigeon    	28	pigeon05    	284	alive    	1	moves	1	natural 	1	n	0	0    	 	0.0	0	167.1469341	167.2468639	0.0999298
144873	100	323	stimuli\plant2\lemontree\plant_lemontree02.jpg   	1	5	1	plant_lemontree02.jpg	plant2   	7	lemontree 	22	lemontree02 	221	alive    	1	still	0	natural 	1	n	0	0    	 	0.0	0	167.2969244	167.3968436	0.0999192
145023	100	324	stimuli\movNat\hotspring\mn_hotspring05.jpg      	1	5	1	mn_hotspring05.jpg   	movNat   	3	hotspring 	21	hotspring05 	214	not_alive	0	moves	1	natural 	1	n	0	0    	 	0.0	0	167.4469263	167.54684609999998	0.0999198
145173	100	325	stimuli\plant2\lemontree\plant_lemontree09.jpg   	1	5	1	plant_lemontree09.jpg	plant2   	7	lemontree 	22	lemontree09 	228	alive    	1	still	0	natural 	1	n	0	0    	 	0.0	0	167.59692919999998	167.6968437	0.0999145
145323	100	326	stimuli\nonmovNat\sand\nmn_sand10.jpg            	1	5	1	nmn_sand10.jpg       	nonmovNat	5	sand      	31	sand10      	319	not_alive	0	still	0	natural 	1	n	0	0    	 	0.0	0	167.746915	167.8468005	0.0998855
145473	100	327	stimuli\plant\flower\plant_flower10.jpg          	1	5	1	plant_flower10.jpg   	plant    	6	flower    	16	flower10    	169	alive    	1	still	0	natural 	1	n	0	0    	 	0.0	0	167.8969096	167.9968594	0.0999498
145623	100	328	stimuli\movArt\helicopter\ma_helicopter07.jpg    	1	5	1	ma_helicopter07.jpg  	movArt   	2	helicopter	19	helicopter07	196	not_alive	0	moves	1	artefact	0	n	0	0    	 	0.0	0	168.04692930000002	168.1468392	0.0999099
145773	100	329	stimuli\nonmovArt\headphones\nma_headphones05.jpg	1	5	1	nma_headphones05.jpg 	nonmovArt	4	headphones	18	headphones05	184	not_alive	0	still	0	artefact	0	n	0	0    	 	0.0	0	168.196927	168.2968319	0.0999048999999999
145923	100	330	stimuli\animals\eagle\animal_eagle10.jpg         	1	5	1	animal_eagle10.jpg   	animals  	0	eagle     	13	eagle10     	139	alive    	1	moves	1	natural 	1	n	0	0    	 	0.0	0	168.34692890000002	168.4468343	0.0999053999999999
146073	100	331	stimuli\nonmovNat\crystal\nmn_crystal05.jpg      	1	5	1	nmn_crystal05.jpg    	nonmovNat	5	crystal   	10	crystal05   	104	not_alive	0	still	0	natural 	1	n	0	0    	 	0.0	0	168.4969496	168.5968743	0.0999246999999999
146223	100	332	stimuli\plant2\moss\plant_moss01.jpg             	1	5	1	plant_moss01.jpg     	plant2   	7	moss      	25	moss01      	250	alive    	1	still	0	natural 	1	n	0	0    	 	0.0	0	168.64693219999998	168.7469121	0.0999799
146373	100	333	stimuli\nonmovArt\lock\nma_lock07.jpg            	1	5	1	nma_lock07.jpg       	nonmovArt	4	lock      	24	lock07      	246	not_alive	0	still	0	artefact	0	n	0	0    	 	0.0	0	168.7969994	168.89686310000002	0.0998637
146523	100	334	stimuli\nonmovNat\cliff\nmn_cliff06.jpg          	1	5	1	nmn_cliff06.jpg      	nonmovNat	5	cliff     	7	cliff06     	75	not_alive	0	still	0	natural 	1	n	0	0    	 	0.0	0	168.9469071	169.0468399	0.0999328
146673	100	335	stimuli\nonmovNat\crystal\nmn_crystal08.jpg      	1	5	1	nmn_crystal08.jpg    	nonmovNat	5	crystal   	10	crystal08   	107	not_alive	0	still	0	natural 	1	n	0	0    	 	0.0	0	169.0969342	169.1968206	0.0998863999999999
146823	100	336	stimuli\movArt\car\ma_car10.jpg                  	1	5	1	ma_car10.jpg         	movArt   	2	car       	5	car10       	59	not_alive	0	moves	1	artefact	0	n	0	0    	 	0.0	0	169.246898	169.34682759999998	0.09992960000000001
146973	100	337	stimuli\nonmovArt\lock\nma_lock10.jpg            	1	5	1	nma_lock10.jpg       	nonmovArt	4	lock      	24	lock10      	249	not_alive	0	still	0	artefact	0	n	0	0    	 	0.0	0	169.396907	169.4968257	0.0999187
147123	100	338	stimuli\nonmovNat\shell\nmn_shell04.jpg          	1	5	1	nmn_shell04.jpg      	nonmovNat	5	shell     	32	shell04     	323	not_alive	0	still	0	natural 	1	n	0	0    	 	0.0	0	169.54691100000002	169.6468156	0.09990460000000001
147273	100	339	stimuli\nonmovNat\sand\nmn_sand04.jpg            	1	5	1	nmn_sand04.jpg       	nonmovNat	5	sand      	31	sand04      	313	not_alive	0	still	0	natural 	1	n	0	0    	 	0.0	0	169.69689219999998	169.79682140000003	0.0999292
147423	100	340	stimuli\plant\tree\plant_tree01.jpg              	1	5	1	plant_tree01.jpg     	plant    	6	tree      	35	tree01      	350	alive    	1	still	0	natural 	1	n	0	0    	 	0.0	0	169.84692019999997	169.9468134	0.0998932
147573	100	341	stimuli\animals\dog\animal_dog01.jpg             	1	5	1	animal_dog01.jpg     	animals  	0	dog       	11	dog01       	110	alive    	1	moves	1	natural 	1	n	0	0    	 	0.0	0	169.99692240000002	170.09682980000002	0.0999074
147723	100	342	stimuli\nonmovArt\mug\nma_mug09.jpg              	1	5	1	nma_mug09.jpg        	nonmovArt	4	mug       	26	mug09       	268	not_alive	0	still	0	artefact	0	n	0	0    	 	0.0	0	170.1468946	170.2468496	0.099955
147873	100	343	stimuli\movArt\bus\ma_bus03.jpg                  	1	5	1	ma_bus03.jpg         	movArt   	2	bus       	3	bus03       	32	not_alive	0	moves	1	artefact	0	n	0	0    	 	0.0	0	170.29689580000002	170.3968367	0.0999409
148023	100	344	stimuli\movArt\boat\ma_boat06.jpg                	1	5	1	ma_boat06.jpg        	movArt   	2	boat      	2	boat06      	25	not_alive	0	moves	1	artefact	0	n	0	0    	 	0.0	0	170.4470006	170.5468977	0.0998971
148173	100	345	stimuli\plant2\moss\plant_moss02.jpg             	1	5	1	plant_moss02.jpg     	plant2   	7	moss      	25	moss02      	251	alive    	1	still	0	natural 	1	n	0	0    	 	0.0	0	170.5969109	170.6968205	0.0999096
148323	100	346	stimuli\movNat\waterfall\mn_waterfall10.jpg      	1	5	1	mn_waterfall10.jpg   	movNat   	3	waterfall 	37	waterfall10 	379	not_alive	0	moves	1	natural 	1	n	0	0    	 	0.0	0	170.7468772	170.8468001	0.0999229
148473	100	347	stimuli\animals2\lemur\animal_lemur06.jpg        	1	5	1	animal_lemur06.jpg   	animals2 	1	lemur     	23	lemur06     	235	alive    	1	moves	1	natural 	1	n	0	0    	 	0.0	0	170.8968908	170.9968085	0.0999177
148623	100	348	stimuli\movArt\train\ma_train04.jpg              	1	5	1	ma_train04.jpg       	movArt   	2	train     	34	train04     	343	not_alive	0	moves	1	artefact	0	n	0	0    	 	0.0	0	171.0468835	171.1468264	0.0999429
148773	100	349	stimuli\nonmovNat\rock\nmn_rock10.jpg            	1	5	1	nmn_rock10.jpg       	nonmovNat	5	rock      	30	rock10      	309	not_alive	0	still	0	natural 	1	n	0	0    	 	0.0	0	171.19688630000002	171.2968157	0.0999294
148923	100	350	stimuli\plant\grass\plant_grass06.jpg            	1	5	1	plant_grass06.jpg    	plant    	6	grass     	17	grass06     	175	alive    	1	still	0	natural 	1	n	0	0    	 	0.0	0	171.34691	171.4467898	0.0998798
149073	100	351	stimuli\animals\eagle\animal_eagle02.jpg         	1	5	1	animal_eagle02.jpg   	animals  	0	eagle     	13	eagle02     	131	alive    	1	moves	1	natural 	1	n	0	0    	 	0.0	0	171.4968881	171.596817	0.0999289
149223	100	352	stimuli\plant2\clover\plant_clover02.jpg         	1	5	1	plant_clover02.jpg   	plant2   	7	clover    	9	clover02    	91	alive    	1	still	0	natural 	1	n	0	0    	 	0.0	0	171.64687030000002	171.7468281	0.0999578
149373	100	353	stimuli\animals\dolphin\animal_dolphin08.jpg     	1	5	1	animal_dolphin08.jpg 	animals  	0	dolphin   	12	dolphin08   	127	alive    	1	moves	1	natural 	1	n	0	0    	 	0.0	0	171.7968716	171.89679990000002	0.0999283
149523	100	354	stimuli\animals2\pigeon\animal_pigeon08.jpg      	1	5	1	animal_pigeon08.jpg  	animals2 	1	pigeon    	28	pigeon08    	287	alive    	1	moves	1	natural 	1	n	0	0    	 	0.0	0	171.9468796	172.0468175	0.0999379
149673	100	355	stimuli\plant2\clover\plant_clover01.jpg         	1	5	1	plant_clover01.jpg   	plant2   	7	clover    	9	clover01    	90	alive    	1	still	0	natural 	1	n	1	0    	 	0.0	0	172.0969153	172.1968503	0.099935
149823	100	356	stimuli\animals2\lemur\animal_lemur05.jpg        	1	5	1	animal_lemur05.jpg   	animals2 	1	lemur     	23	lemur05     	234	alive    	1	moves	1	natural 	1	n	0	0    	 	0.0	0	172.2469545	172.3468938	0.09993930000000001
149973	100	357	stimuli\nonmovArt\clothespeg\nma_clothespeg07.jpg	1	5	1	nma_clothespeg07.jpg 	nonmovArt	4	clothespeg	8	clothespeg07	86	not_alive	0	still	0	artefact	0	n	1	1    	f	0.00020630000000000003	1	172.3969546	172.49679809999998	0.0998434999999999
150123	100	358	stimuli\movNat\hotspring\mn_hotspring01.jpg      	1	5	1	mn_hotspring01.jpg   	movNat   	3	hotspring 	21	hotspring01 	210	not_alive	0	moves	1	natural 	1	n	0	0    	 	0.0	0	172.546874	172.64681299999998	0.099939
150273	100	359	stimuli\nonmovArt\headphones\nma_headphones02.jpg	1	5	1	nma_headphones02.jpg 	nonmovArt	4	headphones	18	headphones02	181	not_alive	0	still	0	artefact	0	n	0	1    	f	0.40367659999999994	1	172.6968652	172.7967968	0.09993160000000001
150423	100	360	stimuli\plant\cactus\plant_cactus08.jpg          	1	5	1	plant_cactus08.jpg   	plant    	6	cactus    	4	cactus08    	47	alive    	1	still	0	natural 	1	n	0	0    	 	0.0	0	172.84688480000003	172.9468094	0.09992460000000002
150573	100	361	stimuli\nonmovNat\rock\nmn_rock07.jpg            	1	5	1	nmn_rock07.jpg       	nonmovNat	5	rock      	30	rock07      	306	not_alive	0	still	0	natural 	1	n	0	0    	 	0.0	0	172.9968589	173.0967904	0.0999315
150723	100	362	stimuli\animals2\lemur\animal_lemur08.jpg        	1	5	1	animal_lemur08.jpg   	animals2 	1	lemur     	23	lemur08     	237	alive    	1	moves	1	natural 	1	n	0	0    	 	0.0	0	173.1468616	173.24682080000002	0.0999592
150873	100	363	stimuli\movArt\boat\ma_boat07.jpg                	1	5	1	ma_boat07.jpg        	movArt   	2	boat      	2	boat07      	26	not_alive	0	moves	1	artefact	0	n	0	0    	 	0.0	0	173.2968592	173.39678899999998	0.0999298
151023	100	364	stimuli\animals2\whale\animal_whale08.jpg        	1	5	1	animal_whale08.jpg   	animals2 	1	whale     	39	whale08     	397	alive    	1	moves	1	natural 	1	n	0	0    	 	0.0	0	173.446862	173.54679050000001	0.0999285
151173	100	365	stimuli\animals\horse\animal_horse05.jpg         	1	5	1	animal_horse05.jpg   	animals  	0	horse     	20	horse05     	204	alive    	1	moves	1	natural 	1	n	0	0    	 	0.0	0	173.5968551	173.6968126	0.0999575
151323	100	366	stimuli\plant2\fern\plant_fern07.jpg             	1	5	1	plant_fern07.jpg     	plant2   	7	fern      	14	fern07      	146	alive    	1	still	0	natural 	1	n	0	0    	 	0.0	0	173.74686699999998	173.846777	0.09991
151473	100	367	stimuli\nonmovArt\mug\nma_mug05.jpg              	1	5	1	nma_mug05.jpg        	nonmovArt	4	mug       	26	mug05       	264	not_alive	0	still	0	artefact	0	n	0	0    	 	0.0	0	173.89687450000002	173.9967908	0.0999163
151623	100	368	stimuli\nonmovArt\clothespeg\nma_clothespeg04.jpg	1	5	1	nma_clothespeg04.jpg 	nonmovArt	4	clothespeg	8	clothespeg04	83	not_alive	0	still	0	artefact	0	n	0	0    	 	0.0	0	174.04694550000002	174.1468616	0.09991610000000001
151773	100	369	stimuli\plant\grass\plant_grass10.jpg            	1	5	1	plant_grass10.jpg    	plant    	6	grass     	17	grass10     	179	alive    	1	still	0	natural 	1	n	0	0    	 	0.0	0	174.1968547	174.2967545	0.09989980000000001
151923	100	370	stimuli\animals\horse\animal_horse08.jpg         	1	5	1	animal_horse08.jpg   	animals  	0	horse     	20	horse08     	207	alive    	1	moves	1	natural 	1	n	0	0    	 	0.0	0	174.3468642	174.44677819999998	0.099914
152073	100	371	stimuli\movArt\car\ma_car01.jpg                  	1	5	1	ma_car01.jpg         	movArt   	2	car       	5	car01       	50	not_alive	0	moves	1	artefact	0	n	1	0    	 	0.0	0	174.4968554	174.5967787	0.0999233
152223	100	372	stimuli\nonmovArt\mug\nma_mug02.jpg              	1	5	1	nma_mug02.jpg        	nonmovArt	4	mug       	26	mug02       	261	not_alive	0	still	0	artefact	0	n	0	0    	 	0.0	0	174.6468504	174.7467802	0.0999298
152373	100	373	stimuli\movArt\car\ma_car09.jpg                  	1	5	1	ma_car09.jpg         	movArt   	2	car       	5	car09       	58	not_alive	0	moves	1	artefact	0	n	0	1    	f	0.39197790000000005	1	174.79684640000002	174.8967626	0.0999162
152523	100	374	stimuli\animals2\pigeon\animal_pigeon01.jpg      	1	5	1	animal_pigeon01.jpg  	animals2 	1	pigeon    	28	pigeon01    	280	alive    	1	moves	1	natural 	1	n	0	0    	 	0.0	0	174.94686480000001	175.0467769	0.0999121
152673	100	375	stimuli\animals\eagle\animal_eagle04.jpg         	1	5	1	animal_eagle04.jpg   	animals  	0	eagle     	13	eagle04     	133	alive    	1	moves	1	natural 	1	n	0	0    	 	0.0	0	175.0968784	175.19677430000002	0.0998959
152823	100	376	stimuli\movNat\fire\mn_fire02.jpg                	1	5	1	mn_fire02.jpg        	movNat   	3	fire      	15	fire02      	151	not_alive	0	moves	1	natural 	1	n	0	0    	 	0.0	0	175.24684299999998	175.3467756	0.0999326
152973	100	377	stimuli\animals2\bee\animal_bee01.jpg            	1	5	1	animal_bee01.jpg     	animals2 	1	bee       	0	bee01       	0	alive    	1	moves	1	natural 	1	n	0	0    	 	0.0	0	175.3968585	175.4967642	0.0999057
153123	100	378	stimuli\animals\cat\animal_cat10.jpg             	1	5	1	animal_cat10.jpg     	animals  	0	cat       	6	cat10       	69	alive    	1	moves	1	natural 	1	n	0	0    	 	0.0	0	175.5468314	175.6467576	0.0999261999999999
153273	100	379	stimuli\animals2\pigeon\animal_pigeon06.jpg      	1	5	1	animal_pigeon06.jpg  	animals2 	1	pigeon    	28	pigeon06    	285	alive    	1	moves	1	natural 	1	n	0	0    	 	0.0	0	175.69683500000002	175.7968425	0.1000075
153423	100	380	stimuli\plant2\lemontree\plant_lemontree10.jpg   	1	5	1	plant_lemontree10.jpg	plant2   	7	lemontree 	22	lemontree10 	229	alive    	1	still	0	natural 	1	n	0	0    	 	0.0	0	175.8469259	175.94677099999998	0.0998451
153573	100	381	stimuli\movNat\hotspring\mn_hotspring03.jpg      	1	5	1	mn_hotspring03.jpg   	movNat   	3	hotspring 	21	hotspring03 	212	not_alive	0	moves	1	natural 	1	n	0	0    	 	0.0	0	175.99683259999998	176.096765	0.0999323999999999
153723	100	382	stimuli\animals\dog\animal_dog08.jpg             	1	5	1	animal_dog08.jpg     	animals  	0	dog       	11	dog08       	117	alive    	1	moves	1	natural 	1	n	0	0    	 	0.0	0	176.146838	176.2467675	0.0999294999999999
153873	100	383	stimuli\movArt\train\ma_train07.jpg              	1	5	1	ma_train07.jpg       	movArt   	2	train     	34	train07     	346	not_alive	0	moves	1	artefact	0	n	0	0    	 	0.0	0	176.29686519999998	176.39678669999998	0.0999215
154023	100	384	stimuli\animals2\bee\animal_bee08.jpg            	1	5	1	animal_bee08.jpg     	animals2 	1	bee       	0	bee08       	7	alive    	1	moves	1	natural 	1	n	0	0    	 	0.0	0	176.4468292	176.5467505	0.0999213
154173	100	385	stimuli\nonmovArt\bench\nma_bench02.jpg          	1	5	1	nma_bench02.jpg      	nonmovArt	4	bench     	1	bench02     	11	not_alive	0	still	0	artefact	0	n	0	0    	 	0.0	0	176.59682800000002	176.6967528	0.09992480000000001
154323	100	386	stimuli\plant\cactus\plant_cactus07.jpg          	1	5	1	plant_cactus07.jpg   	plant    	6	cactus    	4	cactus07    	46	alive    	1	still	0	natural 	1	n	0	0    	 	0.0	0	176.7468189	176.8467795	0.09996060000000001
154473	100	387	stimuli\movNat\hotspring\mn_hotspring10.jpg      	1	5	1	mn_hotspring10.jpg   	movNat   	3	hotspring 	21	hotspring10 	219	not_alive	0	moves	1	natural 	1	n	0	0    	 	0.0	0	176.8968639	176.9967601	0.0998962
154623	100	388	stimuli\movNat\river\mn_river07.jpg              	1	5	1	mn_river07.jpg       	movNat   	3	river     	29	river07     	296	not_alive	0	moves	1	natural 	1	n	0	0    	 	0.0	0	177.0468145	177.1467575	0.0999429999999999
154773	100	389	stimuli\movNat\waves\mn_waves02.jpg              	1	5	1	mn_waves02.jpg       	movNat   	3	waves     	38	waves02     	381	not_alive	0	moves	1	natural 	1	n	0	0    	 	0.0	0	177.19682769999997	177.2967686	0.0999409
154923	100	390	stimuli\plant2\moss\plant_moss02.jpg             	1	5	1	plant_moss02.jpg     	plant2   	7	moss      	25	moss02      	251	alive    	1	still	0	natural 	1	n	0	0    	 	0.0	0	177.3468201	177.4467441	0.099924
155073	100	391	stimuli\movNat\waterfall\mn_waterfall05.jpg      	1	5	1	mn_waterfall05.jpg   	movNat   	3	waterfall 	37	waterfall05 	374	not_alive	0	moves	1	natural 	1	n	0	0    	 	0.0	0	177.49685469999997	177.5968608	0.1000061
155223	100	392	stimuli\nonmovNat\crystal\nmn_crystal10.jpg      	1	5	1	nmn_crystal10.jpg    	nonmovNat	5	crystal   	10	crystal10   	109	not_alive	0	still	0	natural 	1	n	0	0    	 	0.0	0	177.64691069999998	177.7467196	0.0998088999999999
155373	100	393	stimuli\movNat\hotspring\mn_hotspring08.jpg      	1	5	1	mn_hotspring08.jpg   	movNat   	3	hotspring 	21	hotspring08 	217	not_alive	0	moves	1	natural 	1	n	0	0    	 	0.0	0	177.796831	177.8967576	0.0999266
155523	100	394	stimuli\animals\dolphin\animal_dolphin07.jpg     	1	5	1	animal_dolphin07.jpg 	animals  	0	dolphin   	12	dolphin07   	126	alive    	1	moves	1	natural 	1	n	0	0    	 	0.0	0	177.94682419999998	178.0467449	0.0999207
155673	100	395	stimuli\plant\vine\plant_vine02.jpg              	1	5	1	plant_vine02.jpg     	plant    	6	vine      	36	vine02      	361	alive    	1	still	0	natural 	1	n	0	0    	 	0.0	0	178.0968101	178.1967836	0.0999735
155823	100	396	stimuli\animals\dolphin\animal_dolphin01.jpg     	1	5	1	animal_dolphin01.jpg 	animals  	0	dolphin   	12	dolphin01   	120	alive    	1	moves	1	natural 	1	n	0	0    	 	0.0	0	178.246818	178.3467294	0.0999114
155973	100	397	stimuli\nonmovArt\lock\nma_lock06.jpg            	1	5	1	nma_lock06.jpg       	nonmovArt	4	lock      	24	lock06      	245	not_alive	0	still	0	artefact	0	n	0	0    	 	0.0	0	178.39680869999998	178.4967321	0.0999234
156123	100	398	stimuli\nonmovArt\bench\nma_bench05.jpg          	1	5	1	nma_bench05.jpg      	nonmovArt	4	bench     	1	bench05     	14	not_alive	0	still	0	artefact	0	n	0	0    	 	0.0	0	178.54680469999997	178.6467344	0.0999297
156273	100	399	stimuli\nonmovArt\lock\nma_lock03.jpg            	1	5	1	nma_lock03.jpg       	nonmovArt	4	lock      	24	lock03      	242	not_alive	0	still	0	artefact	0	n	0	0    	 	0.0	0	178.69682590000002	178.7967413	0.0999154
159707	100	400	stimuli\nonmovArt\mug\nma_mug10.jpg              	1	6	1	nma_mug10.jpg        	nonmovArt	4	mug       	26	mug10       	269	not_alive	0	still	0	artefact	0	n	0	0    	 	0.0	0	182.1301136	182.2301169	0.1000033
159857	100	401	stimuli\nonmovNat\sand\nmn_sand04.jpg            	1	6	1	nmn_sand04.jpg       	nonmovNat	5	sand      	31	sand04      	313	not_alive	0	still	0	natural 	1	n	0	0    	 	0.0	0	182.2800996	182.3800176	0.0999179999999999
160007	100	402	stimuli\plant2\palmtree\plant_palmtree06.jpg     	1	6	1	plant_palmtree06.jpg 	plant2   	7	palmtree  	27	palmtree06  	275	alive    	1	still	0	natural 	1	n	0	0    	 	0.0	0	182.43008799999998	182.5300026	0.0999146
160157	100	403	stimuli\plant\grass\plant_grass04.jpg            	1	6	1	plant_grass04.jpg    	plant    	6	grass     	17	grass04     	173	alive    	1	still	0	natural 	1	n	0	0    	 	0.0	0	182.5800997	182.6800224	0.0999227
160307	100	404	stimuli\movNat\river\mn_river06.jpg              	1	6	1	mn_river06.jpg       	movNat   	3	river     	29	river06     	295	not_alive	0	moves	1	natural 	1	n	0	0    	 	0.0	0	182.73007990000002	182.8300208	0.0999409
160457	100	405	stimuli\movArt\train\ma_train07.jpg              	1	6	1	ma_train07.jpg       	movArt   	2	train     	34	train07     	346	not_alive	0	moves	1	artefact	0	n	0	0    	 	0.0	0	182.8800904	182.9800139	0.0999235
160607	100	406	stimuli\plant2\moss\plant_moss06.jpg             	1	6	1	plant_moss06.jpg     	plant2   	7	moss      	25	moss06      	255	alive    	1	still	0	natural 	1	n	0	0    	 	0.0	0	183.03007680000002	183.1300041	0.0999273
160757	100	407	stimuli\movArt\boat\ma_boat01.jpg                	1	6	1	ma_boat01.jpg        	movArt   	2	boat      	2	boat01      	20	not_alive	0	moves	1	artefact	0	n	0	0    	 	0.0	0	183.1801009	183.2800169	0.0999159999999999
160907	100	408	stimuli\movNat\fire\mn_fire09.jpg                	1	6	1	mn_fire09.jpg        	movNat   	3	fire      	15	fire09      	158	not_alive	0	moves	1	natural 	1	n	0	0    	 	0.0	0	183.33005580000003	183.4300022	0.0999463999999999
161057	100	409	stimuli\plant2\moss\plant_moss05.jpg             	1	6	1	plant_moss05.jpg     	plant2   	7	moss      	25	moss05      	254	alive    	1	still	0	natural 	1	n	0	0    	 	0.0	0	183.4800812	183.5800121	0.0999309
161207	100	410	stimuli\movArt\car\ma_car04.jpg                  	1	6	1	ma_car04.jpg         	movArt   	2	car       	5	car04       	53	not_alive	0	moves	1	artefact	0	n	0	0    	 	0.0	0	183.630077	183.73000349999998	0.0999265
161357	100	411	stimuli\movArt\train\ma_train08.jpg              	1	6	1	ma_train08.jpg       	movArt   	2	train     	34	train08     	347	not_alive	0	moves	1	artefact	0	n	0	0    	 	0.0	0	183.78008630000002	183.8799637	0.0998773999999999
161507	100	412	stimuli\movArt\bus\ma_bus09.jpg                  	1	6	1	ma_bus09.jpg         	movArt   	2	bus       	3	bus09       	38	not_alive	0	moves	1	artefact	0	n	0	0    	 	0.0	0	183.930074	184.03004019999997	0.0999661999999999
161657	100	413	stimuli\movNat\fire\mn_fire03.jpg                	1	6	1	mn_fire03.jpg        	movNat   	3	fire      	15	fire03      	152	not_alive	0	moves	1	natural 	1	n	0	0    	 	0.0	0	184.0800699	184.18002109999998	0.0999511999999999
161807	100	414	stimuli\nonmovNat\sand\nmn_sand10.jpg            	1	6	1	nmn_sand10.jpg       	nonmovNat	5	sand      	31	sand10      	319	not_alive	0	still	0	natural 	1	n	0	0    	 	0.0	0	184.2300616	184.32998500000002	0.0999234
161957	100	415	stimuli\nonmovNat\crystal\nmn_crystal09.jpg      	1	6	1	nmn_crystal09.jpg    	nonmovNat	5	crystal   	10	crystal09   	108	not_alive	0	still	0	natural 	1	n	0	0    	 	0.0	0	184.38007009999998	184.480002	0.0999318999999999
162107	100	416	stimuli\nonmovNat\rock\nmn_rock08.jpg            	1	6	1	nmn_rock08.jpg       	nonmovNat	5	rock      	30	rock08      	307	not_alive	0	still	0	natural 	1	n	0	0    	 	0.0	0	184.5300595	184.6299951	0.09993560000000001
162257	100	417	stimuli\animals2\whale\animal_whale06.jpg        	1	6	1	animal_whale06.jpg   	animals2 	1	whale     	39	whale06     	395	alive    	1	moves	1	natural 	1	n	0	0    	 	0.0	0	184.6800236	184.7799925	0.0999689
162407	100	418	stimuli\plant2\clover\plant_clover04.jpg         	1	6	1	plant_clover04.jpg   	plant2   	7	clover    	9	clover04    	93	alive    	1	still	0	natural 	1	n	0	0    	 	0.0	0	184.8300626	184.9299789	0.0999163
162557	100	419	stimuli\animals2\tiger\animal_tiger02.jpg        	1	6	1	animal_tiger02.jpg   	animals2 	1	tiger     	33	tiger02     	331	alive    	1	moves	1	natural 	1	n	0	0    	 	0.0	0	184.98008430000002	185.08000149999998	0.0999172
162707	100	420	stimuli\plant\vine\plant_vine04.jpg              	1	6	1	plant_vine04.jpg     	plant    	6	vine      	36	vine04      	363	alive    	1	still	0	natural 	1	n	0	0    	 	0.0	0	185.1300706	185.23	0.0999294
162857	100	421	stimuli\animals2\lemur\animal_lemur10.jpg        	1	6	1	animal_lemur10.jpg   	animals2 	1	lemur     	23	lemur10     	239	alive    	1	moves	1	natural 	1	n	0	0    	 	0.0	0	185.280069	185.3799768	0.0999077999999999
163007	100	422	stimuli\animals2\lemur\animal_lemur07.jpg        	1	6	1	animal_lemur07.jpg   	animals2 	1	lemur     	23	lemur07     	236	alive    	1	moves	1	natural 	1	n	0	0    	 	0.0	0	185.4300615	185.5299815	0.09992000000000001
163157	100	423	stimuli\plant2\fern\plant_fern07.jpg             	1	6	1	plant_fern07.jpg     	plant2   	7	fern      	14	fern07      	146	alive    	1	still	0	natural 	1	n	0	0    	 	0.0	0	185.5800676	185.6801801	0.1001125
163307	100	424	stimuli\nonmovNat\shell\nmn_shell10.jpg          	1	6	1	nmn_shell10.jpg      	nonmovNat	5	shell     	32	shell10     	329	not_alive	0	still	0	natural 	1	n	0	0    	 	0.0	0	185.7301658	185.830001	0.0998352
163457	100	425	stimuli\plant2\palmtree\plant_palmtree10.jpg     	1	6	1	plant_palmtree10.jpg 	plant2   	7	palmtree  	27	palmtree10  	279	alive    	1	still	0	natural 	1	n	0	0    	 	0.0	0	185.88005900000002	185.97999030000003	0.0999313
163607	100	426	stimuli\nonmovNat\shell\nmn_shell10.jpg          	1	6	1	nmn_shell10.jpg      	nonmovNat	5	shell     	32	shell10     	329	not_alive	0	still	0	natural 	1	n	0	0    	 	0.0	0	186.0300449	186.1299644	0.09991950000000001
163757	100	427	stimuli\animals\dolphin\animal_dolphin04.jpg     	1	6	1	animal_dolphin04.jpg 	animals  	0	dolphin   	12	dolphin04   	123	alive    	1	moves	1	natural 	1	n	0	0    	 	0.0	0	186.1800592	186.27997969999998	0.09992050000000001
163907	100	428	stimuli\movNat\waves\mn_waves01.jpg              	1	6	1	mn_waves01.jpg       	movNat   	3	waves     	38	waves01     	380	not_alive	0	moves	1	natural 	1	n	0	0    	 	0.0	0	186.3300606	186.42997140000003	0.09991080000000001
164057	100	429	stimuli\plant\flower\plant_flower10.jpg          	1	6	1	plant_flower10.jpg   	plant    	6	flower    	16	flower10    	169	alive    	1	still	0	natural 	1	n	0	0    	 	0.0	0	186.4800209	186.57997930000002	0.0999583999999999
164207	100	430	stimuli\nonmovNat\cliff\nmn_cliff07.jpg          	1	6	1	nmn_cliff07.jpg      	nonmovNat	5	cliff     	7	cliff07     	76	not_alive	0	still	0	natural 	1	n	0	0    	 	0.0	0	186.6300534	186.729995	0.0999416
164357	100	431	stimuli\nonmovArt\headphones\nma_headphones07.jpg	1	6	1	nma_headphones07.jpg 	nonmovArt	4	headphones	18	headphones07	186	not_alive	0	still	0	artefact	0	n	0	0    	 	0.0	0	186.7800619	186.8799679	0.099906
164507	100	432	stimuli\nonmovArt\lock\nma_lock07.jpg            	1	6	1	nma_lock07.jpg       	nonmovArt	4	lock      	24	lock07      	246	not_alive	0	still	0	artefact	0	n	1	0    	 	0.0	0	186.9300347	187.02994750000002	0.09991280000000001
164657	100	433	stimuli\animals\eagle\animal_eagle01.jpg         	1	6	1	animal_eagle01.jpg   	animals  	0	eagle     	13	eagle01     	130	alive    	1	moves	1	natural 	1	n	0	0    	 	0.0	0	187.08005769999997	187.17998390000002	0.0999261999999999
164807	100	434	stimuli\nonmovArt\clothespeg\nma_clothespeg06.jpg	1	6	1	nma_clothespeg06.jpg 	nonmovArt	4	clothespeg	8	clothespeg06	85	not_alive	0	still	0	artefact	0	n	0	1    	f	0.39202329999999996	1	187.2300526	187.32996740000002	0.0999148
164957	100	435	stimuli\animals\dog\animal_dog04.jpg             	1	6	1	animal_dog04.jpg     	animals  	0	dog       	11	dog04       	113	alive    	1	moves	1	natural 	1	n	0	0    	 	0.0	0	187.38001450000002	187.4799541	0.0999396
165107	100	436	stimuli\nonmovArt\clothespeg\nma_clothespeg01.jpg	1	6	1	nma_clothespeg01.jpg 	nonmovArt	4	clothespeg	8	clothespeg01	80	not_alive	0	still	0	artefact	0	n	0	0    	 	0.0	0	187.5302217	187.62995690000002	0.0997352
165257	100	437	stimuli\movNat\waterfall\mn_waterfall08.jpg      	1	6	1	mn_waterfall08.jpg   	movNat   	3	waterfall 	37	waterfall08 	377	not_alive	0	moves	1	natural 	1	n	0	0    	 	0.0	0	187.68003000000002	187.779977	0.09994700000000001
165407	100	438	stimuli\plant\cactus\plant_cactus10.jpg          	1	6	1	plant_cactus10.jpg   	plant    	6	cactus    	4	cactus10    	49	alive    	1	still	0	natural 	1	n	0	0    	 	0.0	0	187.83003490000002	187.929972	0.09993710000000001
165557	100	439	stimuli\animals\eagle\animal_eagle10.jpg         	1	6	1	animal_eagle10.jpg   	animals  	0	eagle     	13	eagle10     	139	alive    	1	moves	1	natural 	1	n	0	0    	 	0.0	0	187.9800413	188.0799594	0.09991810000000001
165707	100	440	stimuli\plant\tree\plant_tree09.jpg              	1	6	1	plant_tree09.jpg     	plant    	6	tree      	35	tree09      	358	alive    	1	still	0	natural 	1	n	0	0    	 	0.0	0	188.1300302	188.2299448	0.0999146
