onset	duration	eventnumber	stimulus_file	blockno	trialno	is_faststream	stim	stim_category	category_number	exemplar	exemplar_number	image_name	image_number	aliveness	aliveness_bin	movement	movement_bin	naturalness	naturalness_bin	response_hand_moves	istarget	response	keypressed	rt	correct	time_stimon	time_stimoff	stimdur
81879	100	0	stimuli\nonmovArt\lock\nma_lock09.jpg            	1	1	1	nma_lock09.jpg       	nonmovArt	4	lock      	24	lock09      	248	not_alive	0	still	0	artefact	0	n	0	0    	 	0.0	0	103.239949899958	103.339832599973	0.0998827000148594
82029	100	1	stimuli\plant\tree\plant_tree06.jpg              	1	1	1	plant_tree06.jpg     	plant    	6	tree      	35	tree06      	355	alive    	1	still	0	natural 	1	n	0	0    	 	0.0	0	103.390004899935	103.48983909993	0.0998341999948024
82179	100	2	stimuli\plant2\clover\plant_clover09.jpg         	1	1	1	plant_clover09.jpg   	plant2   	7	clover    	9	clover09    	98	alive    	1	still	0	natural 	1	n	0	0    	 	0.0	0	103.53991469997	103.639835499926	0.0999207999557256
82329	100	3	stimuli\movNat\river\mn_river01.jpg              	1	1	1	mn_river01.jpg       	movNat   	3	river     	29	river01     	290	not_alive	0	moves	1	natural 	1	n	0	0    	 	0.0	0	103.689929099986	103.789827299886	0.0998981999000534
82479	100	4	stimuli\movNat\hotspring\mn_hotspring01.jpg      	1	1	1	mn_hotspring01.jpg   	movNat   	3	hotspring 	21	hotspring01 	210	not_alive	0	moves	1	natural 	1	n	0	0    	 	0.0	0	103.839921899955	103.93983959988701	0.0999176999321207
82629	100	5	stimuli\nonmovArt\headphones\nma_headphones07.jpg	1	1	1	nma_headphones07.jpg 	nonmovArt	4	headphones	18	headphones07	186	not_alive	0	still	0	artefact	0	n	0	0    	 	0.0	0	103.989908799995	104.089831299963	0.0999224999686703
82779	100	6	stimuli\movArt\train\ma_train08.jpg              	1	1	1	ma_train08.jpg       	movArt   	2	train     	34	train08     	347	not_alive	0	moves	1	artefact	0	n	0	0    	 	0.0	0	104.139896799927	104.239823299926	0.0999264999991282
82929	100	7	stimuli\movArt\bus\ma_bus04.jpg                  	1	1	1	ma_bus04.jpg         	movArt   	2	bus       	3	bus04       	33	not_alive	0	moves	1	artefact	0	n	0	0    	 	0.0	0	104.28991689998699	104.38983749994101	0.0999205999542027
83079	100	8	stimuli\nonmovNat\shell\nmn_shell01.jpg          	1	1	1	nmn_shell01.jpg      	nonmovNat	5	shell     	32	shell01     	320	not_alive	0	still	0	natural 	1	n	0	0    	 	0.0	0	104.44023559999201	104.539915499976	0.0996798999840393
83229	100	9	stimuli\movArt\car\ma_car03.jpg                  	1	1	1	ma_car03.jpg         	movArt   	2	car       	5	car03       	52	not_alive	0	moves	1	artefact	0	n	0	0    	 	0.0	0	104.590059899958	104.689821099979	0.099761200021021
83379	100	10	stimuli\animals2\tiger\animal_tiger01.jpg        	1	1	1	animal_tiger01.jpg   	animals2 	1	tiger     	33	tiger01     	330	alive    	1	moves	1	natural 	1	n	0	0    	 	0.0	0	104.73994899995199	104.83981559996	0.0998666000086814
83529	100	11	stimuli\movNat\hotspring\mn_hotspring07.jpg      	1	1	1	mn_hotspring07.jpg   	movNat   	3	hotspring 	21	hotspring07 	216	not_alive	0	moves	1	natural 	1	n	0	0    	 	0.0	0	104.889915499953	104.98982209991699	0.0999065999640152
83679	100	12	stimuli\nonmovNat\rock\nmn_rock10.jpg            	1	1	1	nmn_rock10.jpg       	nonmovNat	5	rock      	30	rock10      	309	not_alive	0	still	0	natural 	1	n	0	0    	 	0.0	0	105.039911099942	105.13981979992201	0.0999086999800056
83829	100	13	stimuli\nonmovNat\cliff\nmn_cliff10.jpg          	1	1	1	nmn_cliff10.jpg      	nonmovNat	5	cliff     	7	cliff10     	79	not_alive	0	still	0	natural 	1	n	0	0    	 	0.0	0	105.18989859998699	105.28982169996	0.099923099973239
83979	100	14	stimuli\plant2\moss\plant_moss06.jpg             	1	1	1	plant_moss06.jpg     	plant2   	7	moss      	25	moss06      	255	alive    	1	still	0	natural 	1	n	0	0    	 	0.0	0	105.339915399905	105.439819799969	0.0999044000636786
84129	100	15	stimuli\movArt\car\ma_car03.jpg                  	1	1	1	ma_car03.jpg         	movArt   	2	car       	5	car03       	52	not_alive	0	moves	1	artefact	0	n	0	0    	 	0.0	0	105.48989499989	105.589800599962	0.099905600072816
84279	100	16	stimuli\animals\horse\animal_horse04.jpg         	1	1	1	animal_horse04.jpg   	animals  	0	horse     	20	horse04     	203	alive    	1	moves	1	natural 	1	n	0	0    	 	0.0	0	105.639911799924	105.7398198999	0.0999080999754369
84429	100	17	stimuli\plant2\palmtree\plant_palmtree08.jpg     	1	1	1	plant_palmtree08.jpg 	plant2   	7	palmtree  	27	palmtree08  	277	alive    	1	still	0	natural 	1	n	0	0    	 	0.0	0	105.78989309992201	105.889806399937	0.0999133000150322
84579	100	18	stimuli\animals\dog\animal_dog10.jpg             	1	1	1	animal_dog10.jpg     	animals  	0	dog       	11	dog10       	119	alive    	1	moves	1	natural 	1	n	0	0    	 	0.0	0	105.939905799925	106.039811999886	0.0999061999609694
84729	100	19	stimuli\movArt\helicopter\ma_helicopter03.jpg    	1	1	1	ma_helicopter03.jpg  	movArt   	2	helicopter	19	helicopter03	192	not_alive	0	moves	1	artefact	0	n	1	0    	 	0.0	0	106.089892899967	106.18981019989599	0.0999172999290749
84879	100	20	stimuli\nonmovArt\bench\nma_bench09.jpg          	1	1	1	nma_bench09.jpg      	nonmovArt	4	bench     	1	bench09     	18	not_alive	0	still	0	artefact	0	n	0	1    	f	0.25022629997692997	1	106.239897899912	106.339802199975	0.0999043000629171
85029	100	21	stimuli\animals\dolphin\animal_dolphin04.jpg     	1	1	1	animal_dolphin04.jpg 	animals  	0	dolphin   	12	dolphin04   	123	alive    	1	moves	1	natural 	1	n	0	0    	 	0.0	0	106.38996759999999	106.48989989992701	0.09993229992687701
85179	100	22	stimuli\plant2\lemontree\plant_lemontree04.jpg   	1	1	1	plant_lemontree04.jpg	plant2   	7	lemontree 	22	lemontree04 	223	alive    	1	still	0	natural 	1	n	0	0    	 	0.0	0	106.539907999919	106.639823099948	0.0999151000287383
85329	100	23	stimuli\movArt\train\ma_train02.jpg              	1	1	1	ma_train02.jpg       	movArt   	2	train     	34	train02     	341	not_alive	0	moves	1	artefact	0	n	0	0    	 	0.0	0	106.68990969995501	106.789793799981	0.0998841000255197
85479	100	24	stimuli\plant2\lemontree\plant_lemontree06.jpg   	1	1	1	plant_lemontree06.jpg	plant2   	7	lemontree 	22	lemontree06 	225	alive    	1	still	0	natural 	1	n	0	0    	 	0.0	0	106.839899999904	106.939808899886	0.0999088999815285
85629	100	25	stimuli\movNat\waterfall\mn_waterfall02.jpg      	1	1	1	mn_waterfall02.jpg   	movNat   	3	waterfall 	37	waterfall02 	371	not_alive	0	moves	1	natural 	1	n	0	0    	 	0.0	0	106.98990199994302	107.089800899965	0.0998989000217989
85779	100	26	stimuli\movNat\fire\mn_fire09.jpg                	1	1	1	mn_fire09.jpg        	movNat   	3	fire      	15	fire09      	158	not_alive	0	moves	1	natural 	1	n	0	0    	 	0.0	0	107.139906699886	107.23980209999701	0.0998954001115635
85929	100	27	stimuli\movNat\waves\mn_waves04.jpg              	1	1	1	mn_waves04.jpg       	movNat   	3	waves     	38	waves04     	383	not_alive	0	moves	1	natural 	1	n	0	0    	 	0.0	0	107.28989429993099	107.38979289995001	0.0998986000195145
86079	100	28	stimuli\nonmovNat\shell\nmn_shell09.jpg          	1	1	1	nmn_shell09.jpg      	nonmovNat	5	shell     	32	shell09     	328	not_alive	0	still	0	natural 	1	n	1	0    	 	0.0	0	107.43989029992399	107.539802699932	0.0999124000081792
86229	100	29	stimuli\animals2\tiger\animal_tiger07.jpg        	1	1	1	animal_tiger07.jpg   	animals2 	1	tiger     	33	tiger07     	336	alive    	1	moves	1	natural 	1	n	0	0    	 	0.0	0	107.589880499989	107.689812799916	0.09993229992687701
86379	100	30	stimuli\nonmovArt\lock\nma_lock05.jpg            	1	1	1	nma_lock05.jpg       	nonmovArt	4	lock      	24	lock05      	244	not_alive	0	still	0	artefact	0	n	0	1    	f	0.39201399998273706	1	107.73989319999201	107.83978889999001	0.0998956999974325
86529	100	31	stimuli\animals2\whale\animal_whale05.jpg        	1	1	1	animal_whale05.jpg   	animals2 	1	whale     	39	whale05     	394	alive    	1	moves	1	natural 	1	n	0	0    	 	0.0	0	107.889892399893	107.989809599938	0.0999172000447288
86679	100	32	stimuli\animals\horse\animal_horse02.jpg         	1	1	1	animal_horse02.jpg   	animals  	0	horse     	20	horse02     	201	alive    	1	moves	1	natural 	1	n	0	0    	 	0.0	0	108.039882099954	108.139749099966	0.0998670000117272
86829	100	33	stimuli\animals2\bee\animal_bee03.jpg            	1	1	1	animal_bee03.jpg     	animals2 	1	bee       	0	bee03       	2	alive    	1	moves	1	natural 	1	n	1	0    	 	0.0	0	108.189882899984	108.289793399977	0.0999104999937117
86979	100	34	stimuli\plant\vine\plant_vine06.jpg              	1	1	1	plant_vine06.jpg     	plant    	6	vine      	36	vine06      	365	alive    	1	still	0	natural 	1	n	0	0    	 	0.0	0	108.339877799968	108.439786599949	0.099908799980767
87129	100	35	stimuli\animals2\bee\animal_bee09.jpg            	1	1	1	animal_bee09.jpg     	animals2 	1	bee       	0	bee09       	8	alive    	1	moves	1	natural 	1	n	0	1    	f	0.301237699924968	1	108.489878799999	108.589805899886	0.0999270998872816
87279	100	36	stimuli\movNat\river\mn_river06.jpg              	1	1	1	mn_river06.jpg       	movNat   	3	river     	29	river06     	295	not_alive	0	moves	1	natural 	1	n	0	0    	 	0.0	0	108.63988879998199	108.73979199991999	0.0999031999381259
87429	100	37	stimuli\movNat\waterfall\mn_waterfall06.jpg      	1	1	1	mn_waterfall06.jpg   	movNat   	3	waterfall 	37	waterfall06 	375	not_alive	0	moves	1	natural 	1	n	0	0    	 	0.0	0	108.78987209999501	108.8896313	0.09975920000579198
87579	100	38	stimuli\animals\eagle\animal_eagle06.jpg         	1	1	1	animal_eagle06.jpg   	animals  	0	eagle     	13	eagle06     	135	alive    	1	moves	1	natural 	1	n	0	0    	 	0.0	0	108.93975249992201	109.039699899964	0.0999474000418558
87729	100	39	stimuli\movNat\fire\mn_fire06.jpg                	1	1	1	mn_fire06.jpg        	movNat   	3	fire      	15	fire06      	155	not_alive	0	moves	1	natural 	1	n	0	0    	 	0.0	0	109.08974329999201	109.189669199986	0.0999258999945596
87879	100	40	stimuli\plant\flower\plant_flower03.jpg          	1	1	1	plant_flower03.jpg   	plant    	6	flower    	16	flower03    	162	alive    	1	still	0	natural 	1	n	0	0    	 	0.0	0	109.23990599997299	109.339783299947	0.0998772999737411
88029	100	41	stimuli\nonmovNat\rock\nmn_rock06.jpg            	1	1	1	nmn_rock06.jpg       	nonmovNat	5	rock      	30	rock06      	305	not_alive	0	still	0	natural 	1	n	0	0    	 	0.0	0	109.389873899985	109.48978429997801	0.0999103999929502
88179	100	42	stimuli\animals\dog\animal_dog10.jpg             	1	1	1	animal_dog10.jpg     	animals  	0	dog       	11	dog10       	119	alive    	1	moves	1	natural 	1	n	0	0    	 	0.0	0	109.539868399967	109.639787899912	0.0999194999458268
88329	100	43	stimuli\animals\dolphin\animal_dolphin07.jpg     	1	1	1	animal_dolphin07.jpg 	animals  	0	dolphin   	12	dolphin07   	126	alive    	1	moves	1	natural 	1	n	0	0    	 	0.0	0	109.68989269994199	109.789817399927	0.0999246999854222
88479	100	44	stimuli\animals\cat\animal_cat02.jpg             	1	1	1	animal_cat02.jpg     	animals  	0	cat       	6	cat02       	61	alive    	1	moves	1	natural 	1	n	0	0    	 	0.0	0	109.8398687999	109.939771299949	0.09990250004921099
88629	100	45	stimuli\movNat\hotspring\mn_hotspring09.jpg      	1	1	1	mn_hotspring09.jpg   	movNat   	3	hotspring 	21	hotspring09 	218	not_alive	0	moves	1	natural 	1	n	0	0    	 	0.0	0	109.98996229993601	110.08979829994499	0.0998360000085085
88779	100	46	stimuli\plant\cactus\plant_cactus03.jpg          	1	1	1	plant_cactus03.jpg   	plant    	6	cactus    	4	cactus03    	42	alive    	1	still	0	natural 	1	n	0	0    	 	0.0	0	110.139869799954	110.23977789992901	0.0999080999754369
88929	100	47	stimuli\animals2\lemur\animal_lemur08.jpg        	1	1	1	animal_lemur08.jpg   	animals2 	1	lemur     	23	lemur08     	237	alive    	1	moves	1	natural 	1	n	0	0    	 	0.0	0	110.289854499977	110.38976649998199	0.0999120000051334
89079	100	48	stimuli\animals2\pigeon\animal_pigeon06.jpg      	1	1	1	animal_pigeon06.jpg  	animals2 	1	pigeon    	28	pigeon06    	285	alive    	1	moves	1	natural 	1	n	0	0    	 	0.0	0	110.439846099936	110.5397678999	0.0999217999633401
89229	100	49	stimuli\nonmovNat\cliff\nmn_cliff06.jpg          	1	1	1	nmn_cliff06.jpg      	nonmovNat	5	cliff     	7	cliff06     	75	not_alive	0	still	0	natural 	1	n	0	0    	 	0.0	0	110.58985729992901	110.689766099909	0.099908799980767
89379	100	50	stimuli\movNat\river\mn_river02.jpg              	1	1	1	mn_river02.jpg       	movNat   	3	river     	29	river02     	291	not_alive	0	moves	1	natural 	1	n	0	0    	 	0.0	0	110.739853699924	110.83976819994899	0.0999145000241696
89529	100	51	stimuli\nonmovArt\clothespeg\nma_clothespeg10.jpg	1	1	1	nma_clothespeg10.jpg 	nonmovArt	4	clothespeg	8	clothespeg10	89	not_alive	0	still	0	artefact	0	n	0	0    	 	0.0	0	110.889850699925	110.98977749992599	0.0999268000014126
89679	100	52	stimuli\plant2\fern\plant_fern04.jpg             	1	1	1	plant_fern04.jpg     	plant2   	7	fern      	14	fern04      	143	alive    	1	still	0	natural 	1	n	0	0    	 	0.0	0	111.03986879997	111.13976880000001	0.0999000000301748
89829	100	53	stimuli\plant2\clover\plant_clover01.jpg         	1	1	1	plant_clover01.jpg   	plant2   	7	clover    	9	clover01    	90	alive    	1	still	0	natural 	1	n	0	0    	 	0.0	0	111.189860799932	111.289758999948	0.0998982000164687
89979	100	54	stimuli\plant\grass\plant_grass06.jpg            	1	1	1	plant_grass06.jpg    	plant    	6	grass     	17	grass06     	175	alive    	1	still	0	natural 	1	n	0	0    	 	0.0	0	111.33985159988501	111.439751199912	0.099899600027129
90129	100	55	stimuli\movArt\boat\ma_boat10.jpg                	1	1	1	ma_boat10.jpg        	movArt   	2	boat      	2	boat10      	29	not_alive	0	moves	1	artefact	0	n	0	0    	 	0.0	0	111.489856399945	111.58974669990101	0.0998902999563142
90279	100	56	stimuli\plant\cactus\plant_cactus09.jpg          	1	1	1	plant_cactus09.jpg   	plant    	6	cactus    	4	cactus09    	48	alive    	1	still	0	natural 	1	n	0	0    	 	0.0	0	111.639868799946	111.739749399945	0.099880599998869
90429	100	57	stimuli\animals2\bee\animal_bee02.jpg            	1	1	1	animal_bee02.jpg     	animals2 	1	bee       	0	bee02       	1	alive    	1	moves	1	natural 	1	n	0	0    	 	0.0	0	111.789956999943	111.88975039997601	0.0997934000333771
90579	100	58	stimuli\nonmovArt\headphones\nma_headphones01.jpg	1	1	1	nma_headphones01.jpg 	nonmovArt	4	headphones	18	headphones01	180	not_alive	0	still	0	artefact	0	n	1	0    	 	0.0	0	111.939846899942	112.03976719989402	0.0999202999519184
90729	100	59	stimuli\nonmovArt\bench\nma_bench07.jpg          	1	1	1	nma_bench07.jpg      	nonmovArt	4	bench     	1	bench07     	16	not_alive	0	still	0	artefact	0	n	0	0    	 	0.0	0	112.089843899943	112.18976369989099	0.0999197999481111
90879	100	60	stimuli\plant2\lemontree\plant_lemontree05.jpg   	1	1	1	plant_lemontree05.jpg	plant2   	7	lemontree 	22	lemontree05 	224	alive    	1	still	0	natural 	1	n	0	0    	 	0.0	0	112.23985709995002	112.339759999886	0.0999028999358415
91029	100	61	stimuli\animals\horse\animal_horse01.jpg         	1	1	1	animal_horse01.jpg   	animals  	0	horse     	20	horse01     	200	alive    	1	moves	1	natural 	1	n	0	0    	 	0.0	0	112.38985059992399	112.48973939998501	0.0998888000613078
91179	100	62	stimuli\plant\vine\plant_vine09.jpg              	1	1	1	plant_vine09.jpg     	plant    	6	vine      	36	vine09      	368	alive    	1	still	0	natural 	1	n	0	0    	 	0.0	0	112.539832099923	112.63975359999999	0.0999215000774711
91329	100	63	stimuli\animals2\pigeon\animal_pigeon09.jpg      	1	1	1	animal_pigeon09.jpg  	animals2 	1	pigeon    	28	pigeon09    	288	alive    	1	moves	1	natural 	1	n	0	0    	 	0.0	0	112.68983069993601	112.789763699984	0.0999330000486224
91479	100	64	stimuli\nonmovNat\crystal\nmn_crystal05.jpg      	1	1	1	nmn_crystal05.jpg    	nonmovNat	5	crystal   	10	crystal05   	104	not_alive	0	still	0	natural 	1	n	0	0    	 	0.0	0	112.839842599933	112.939752299921	0.0999096999876201
91629	100	65	stimuli\animals2\lemur\animal_lemur05.jpg        	1	1	1	animal_lemur05.jpg   	animals2 	1	lemur     	23	lemur05     	234	alive    	1	moves	1	natural 	1	n	0	0    	 	0.0	0	112.98983809992201	113.089754299959	0.0999162000371143
91779	100	66	stimuli\nonmovArt\bench\nma_bench08.jpg          	1	1	1	nma_bench08.jpg      	nonmovArt	4	bench     	1	bench08     	17	not_alive	0	still	0	artefact	0	n	0	0    	 	0.0	0	113.13983959995701	113.23973599996	0.0998964000027626
91929	100	67	stimuli\nonmovNat\sand\nmn_sand08.jpg            	1	1	1	nmn_sand08.jpg       	nonmovNat	5	sand      	31	sand08      	317	not_alive	0	still	0	natural 	1	n	0	0    	 	0.0	0	113.289837799966	113.389732699958	0.0998948999913409
92079	100	68	stimuli\nonmovArt\lock\nma_lock10.jpg            	1	1	1	nma_lock10.jpg       	nonmovArt	4	lock      	24	lock10      	249	not_alive	0	still	0	artefact	0	n	0	0    	 	0.0	0	113.439845099929	113.539751199889	0.0999060999602079
92229	100	69	stimuli\plant\cactus\plant_cactus03.jpg          	1	1	1	plant_cactus03.jpg   	plant    	6	cactus    	4	cactus03    	42	alive    	1	still	0	natural 	1	n	0	0    	 	0.0	0	113.590012699948	113.689751099912	0.0997383999638259
92379	100	70	stimuli\plant2\fern\plant_fern09.jpg             	1	1	1	plant_fern09.jpg     	plant2   	7	fern      	14	fern09      	148	alive    	1	still	0	natural 	1	n	0	0    	 	0.0	0	113.739826299949	113.83975849999099	0.0999322000425309
92529	100	71	stimuli\nonmovArt\clothespeg\nma_clothespeg10.jpg	1	1	1	nma_clothespeg10.jpg 	nonmovArt	4	clothespeg	8	clothespeg10	89	not_alive	0	still	0	artefact	0	n	0	0    	 	0.0	0	113.88983609993	113.98973469995	0.0998986000195145
92679	100	72	stimuli\nonmovArt\mug\nma_mug04.jpg              	1	1	1	nma_mug04.jpg        	nonmovArt	4	mug       	26	mug04       	263	not_alive	0	still	0	artefact	0	n	0	0    	 	0.0	0	114.03983479994301	114.139750499977	0.09991570003330698
92829	100	73	stimuli\animals\cat\animal_cat02.jpg             	1	1	1	animal_cat02.jpg     	animals  	0	cat       	6	cat02       	61	alive    	1	moves	1	natural 	1	n	0	0    	 	0.0	0	114.18983329995501	114.289731099969	0.0998978000134229
92979	100	74	stimuli\animals\eagle\animal_eagle05.jpg         	1	1	1	animal_eagle05.jpg   	animals  	0	eagle     	13	eagle05     	134	alive    	1	moves	1	natural 	1	n	0	0    	 	0.0	0	114.3398229999	114.439728099969	0.0999051000690087
93129	100	75	stimuli\animals\cat\animal_cat08.jpg             	1	1	1	animal_cat08.jpg     	animals  	0	cat       	6	cat08       	67	alive    	1	moves	1	natural 	1	n	0	0    	 	0.0	0	114.489824999939	114.589735499932	0.0999104999937117
93279	100	76	stimuli\movArt\boat\ma_boat01.jpg                	1	1	1	ma_boat01.jpg        	movArt   	2	boat      	2	boat01      	20	not_alive	0	moves	1	artefact	0	n	0	0    	 	0.0	0	114.639834599919	114.739744599909	0.0999099999899044
93429	100	77	stimuli\plant\grass\plant_grass10.jpg            	1	1	1	plant_grass10.jpg    	plant    	6	grass     	17	grass10     	179	alive    	1	still	0	natural 	1	n	0	0    	 	0.0	0	114.78982690000001	114.88974429993	0.0999173999298364
93579	100	78	stimuli\animals\dolphin\animal_dolphin10.jpg     	1	1	1	animal_dolphin10.jpg 	animals  	0	dolphin   	12	dolphin10   	129	alive    	1	moves	1	natural 	1	n	0	0    	 	0.0	0	114.939813699923	115.039741999935	0.0999283000128343
93729	100	79	stimuli\nonmovNat\crystal\nmn_crystal08.jpg      	1	1	1	nmn_crystal08.jpg    	nonmovNat	5	crystal   	10	crystal08   	107	not_alive	0	still	0	natural 	1	n	0	0    	 	0.0	0	115.08981169993099	115.189732300001	0.09992060007061802
98012	100	80	stimuli\animals2\whale\animal_whale09.jpg        	1	2	1	animal_whale09.jpg   	animals2 	1	whale     	39	whale09     	398	alive    	1	moves	1	natural 	1	n	0	0    	 	0.0	0	119.37317409995	119.47304019995501	0.0998661000048741
98162	100	81	stimuli\movArt\helicopter\ma_helicopter10.jpg    	1	2	1	ma_helicopter10.jpg  	movArt   	2	helicopter	19	helicopter10	199	not_alive	0	moves	1	artefact	0	n	0	0    	 	0.0	0	119.52313459990499	119.623049599933	0.0999150000279769
98312	100	82	stimuli\plant2\palmtree\plant_palmtree05.jpg     	1	2	1	plant_palmtree05.jpg 	plant2   	7	palmtree  	27	palmtree05  	274	alive    	1	still	0	natural 	1	n	0	0    	 	0.0	0	119.673140199971	119.77303229994101	0.0998920999700203
98462	100	83	stimuli\plant2\fern\plant_fern07.jpg             	1	2	1	plant_fern07.jpg     	plant2   	7	fern      	14	fern07      	146	alive    	1	still	0	natural 	1	n	0	0    	 	0.0	0	119.82312349998399	119.923038699897	0.0999151999130845
98612	100	84	stimuli\movNat\waves\mn_waves05.jpg              	1	2	1	mn_waves05.jpg       	movNat   	3	waves     	38	waves05     	384	not_alive	0	moves	1	natural 	1	n	0	0    	 	0.0	0	119.97312270000099	120.073025899939	0.0999031999381259
98762	100	85	stimuli\nonmovNat\sand\nmn_sand02.jpg            	1	2	1	nmn_sand02.jpg       	nonmovNat	5	sand      	31	sand02      	311	not_alive	0	still	0	natural 	1	n	0	0    	 	0.0	0	120.12312959996099	120.22303289989901	0.0999032999388873
98912	100	86	stimuli\movNat\waves\mn_waves06.jpg              	1	2	1	mn_waves06.jpg       	movNat   	3	waves     	38	waves06     	385	not_alive	0	moves	1	natural 	1	n	0	0    	 	0.0	0	120.27310439990801	120.373033399926	0.0999290000181645
99062	100	87	stimuli\nonmovArt\headphones\nma_headphones07.jpg	1	2	1	nma_headphones07.jpg 	nonmovArt	4	headphones	18	headphones07	186	not_alive	0	still	0	artefact	0	n	0	0    	 	0.0	0	120.423131699907	120.523037199979	0.0999055000720545
99212	100	88	stimuli\plant\flower\plant_flower01.jpg          	1	2	1	plant_flower01.jpg   	plant    	6	flower    	16	flower01    	160	alive    	1	still	0	natural 	1	n	0	0    	 	0.0	0	120.57316769997101	120.673040899914	0.0998731999425217
99362	100	89	stimuli\movArt\bus\ma_bus04.jpg                  	1	2	1	ma_bus04.jpg         	movArt   	2	bus       	3	bus04       	33	not_alive	0	moves	1	artefact	0	n	0	0    	 	0.0	0	120.723220099928	120.823035799898	0.0998156999703496
99512	100	90	stimuli\plant\grass\plant_grass10.jpg            	1	2	1	plant_grass10.jpg    	plant    	6	grass     	17	grass10     	179	alive    	1	still	0	natural 	1	n	0	0    	 	0.0	0	120.873105799896	120.97303589992201	0.0999301000265404
99662	100	91	stimuli\movArt\bus\ma_bus06.jpg                  	1	2	1	ma_bus06.jpg         	movArt   	2	bus       	3	bus06       	35	not_alive	0	moves	1	artefact	0	n	0	0    	 	0.0	0	121.0231164	121.123034099932	0.0999176999321207
99812	100	92	stimuli\nonmovNat\rock\nmn_rock02.jpg            	1	2	1	nmn_rock02.jpg       	nonmovNat	5	rock      	30	rock02      	301	not_alive	0	still	0	natural 	1	n	0	0    	 	0.0	0	121.17312329995899	121.273048199946	0.099924899986945
99962	100	93	stimuli\plant\tree\plant_tree07.jpg              	1	2	1	plant_tree07.jpg     	plant    	6	tree      	35	tree07      	356	alive    	1	still	0	natural 	1	n	0	0    	 	0.0	0	121.32310489995899	121.42302039998998	0.0999155000317841
100112	100	94	stimuli\movArt\boat\ma_boat07.jpg                	1	2	1	ma_boat07.jpg        	movArt   	2	boat      	2	boat07      	26	not_alive	0	moves	1	artefact	0	n	0	0    	 	0.0	0	121.47310949990101	121.573019199888	0.0999096999876201
100262	100	95	stimuli\plant\flower\plant_flower04.jpg          	1	2	1	plant_flower04.jpg   	plant    	6	flower    	16	flower04    	163	alive    	1	still	0	natural 	1	n	0	0    	 	0.0	0	121.623129699961	121.723021999933	0.0998922999715432
100412	100	96	stimuli\animals2\lemur\animal_lemur04.jpg        	1	2	1	animal_lemur04.jpg   	animals2 	1	lemur     	23	lemur04     	233	alive    	1	moves	1	natural 	1	n	0	0    	 	0.0	0	121.773109799949	121.873017699923	0.09990789997391401
100562	100	97	stimuli\animals2\whale\animal_whale10.jpg        	1	2	1	animal_whale10.jpg   	animals2 	1	whale     	39	whale10     	399	alive    	1	moves	1	natural 	1	n	0	0    	 	0.0	0	121.923121799948	122.023028599913	0.09990679996553802
100712	100	98	stimuli\plant\tree\plant_tree10.jpg              	1	2	1	plant_tree10.jpg     	plant    	6	tree      	35	tree10      	359	alive    	1	still	0	natural 	1	n	0	0    	 	0.0	0	122.073119299952	122.17302169999999	0.0999024000484496
100862	100	99	stimuli\movNat\fire\mn_fire07.jpg                	1	2	1	mn_fire07.jpg        	movNat   	3	fire      	15	fire07      	156	not_alive	0	moves	1	natural 	1	n	0	0    	 	0.0	0	122.223106999998	122.32303159998301	0.0999245999846607
101012	100	100	stimuli\nonmovArt\clothespeg\nma_clothespeg08.jpg	1	2	1	nma_clothespeg08.jpg 	nonmovArt	4	clothespeg	8	clothespeg08	87	not_alive	0	still	0	artefact	0	n	0	0    	 	0.0	0	122.37311699998101	122.47301289998	0.0998958999989554
101162	100	101	stimuli\animals2\pigeon\animal_pigeon06.jpg      	1	2	1	animal_pigeon06.jpg  	animals2 	1	pigeon    	28	pigeon06    	285	alive    	1	moves	1	natural 	1	n	0	0    	 	0.0	0	122.523205399979	122.62302019994199	0.0998147999634966
101312	100	102	stimuli\movArt\helicopter\ma_helicopter07.jpg    	1	2	1	ma_helicopter07.jpg  	movArt   	2	helicopter	19	helicopter07	196	not_alive	0	moves	1	artefact	0	n	0	0    	 	0.0	0	122.673096499988	122.77303039992701	0.0999338999390602
101462	100	103	stimuli\nonmovNat\shell\nmn_shell10.jpg          	1	2	1	nmn_shell10.jpg      	nonmovNat	5	shell     	32	shell10     	329	not_alive	0	still	0	natural 	1	n	0	0    	 	0.0	0	122.82310369995001	122.923010899918	0.0999071999685838
101612	100	104	stimuli\nonmovArt\mug\nma_mug01.jpg              	1	2	1	nma_mug01.jpg        	nonmovArt	4	mug       	26	mug01       	260	not_alive	0	still	0	artefact	0	n	0	0    	 	0.0	0	122.973095999914	123.07300939993	0.0999134000157937
101762	100	105	stimuli\movArt\car\ma_car06.jpg                  	1	2	1	ma_car06.jpg         	movArt   	2	car       	5	car06       	55	not_alive	0	moves	1	artefact	0	n	0	0    	 	0.0	0	123.123114699963	123.223012099974	0.0998974000103771
101912	100	106	stimuli\plant2\palmtree\plant_palmtree05.jpg     	1	2	1	plant_palmtree05.jpg 	plant2   	7	palmtree  	27	palmtree05  	274	alive    	1	still	0	natural 	1	n	0	0    	 	0.0	0	123.27309509995399	123.373013999895	0.0999188999412581
102062	100	107	stimuli\plant\vine\plant_vine05.jpg              	1	2	1	plant_vine05.jpg     	plant    	6	vine      	36	vine05      	364	alive    	1	still	0	natural 	1	n	1	0    	 	0.0	0	123.423113500001	123.523009699886	0.0998961998848244
102212	100	108	stimuli\movNat\waterfall\mn_waterfall03.jpg      	1	2	1	mn_waterfall03.jpg   	movNat   	3	waterfall 	37	waterfall03 	372	not_alive	0	moves	1	natural 	1	n	0	0    	 	0.0	0	123.573093799991	123.67301419994301	0.0999203999526798
102362	100	109	stimuli\nonmovNat\cliff\nmn_cliff07.jpg          	1	2	1	nmn_cliff07.jpg      	nonmovNat	5	cliff     	7	cliff07     	76	not_alive	0	still	0	natural 	1	n	0	1    	f	0.292025799979456	1	123.72309389989799	123.82301839999901	0.0999245001003146
102512	100	110	stimuli\movArt\train\ma_train05.jpg              	1	2	1	ma_train05.jpg       	movArt   	2	train     	34	train05     	344	not_alive	0	moves	1	artefact	0	n	0	0    	 	0.0	0	123.873094299925	123.97300329990699	0.0999089999822899
102662	100	111	stimuli\nonmovNat\crystal\nmn_crystal02.jpg      	1	2	1	nmn_crystal02.jpg    	nonmovNat	5	crystal   	10	crystal02   	101	not_alive	0	still	0	natural 	1	n	0	0    	 	0.0	0	124.02309249993401	124.123011599993	0.0999191000591963
102812	100	112	stimuli\nonmovNat\sand\nmn_sand04.jpg            	1	2	1	nmn_sand04.jpg       	nonmovNat	5	sand      	31	sand04      	313	not_alive	0	still	0	natural 	1	n	0	0    	 	0.0	0	124.173065099982	124.273098299978	0.10003319999668699
102962	100	113	stimuli\plant2\moss\plant_moss04.jpg             	1	2	1	plant_moss04.jpg     	plant2   	7	moss      	25	moss04      	253	alive    	1	still	0	natural 	1	n	0	0    	 	0.0	0	124.323151899967	124.422998199938	0.0998462999705225
103112	100	114	stimuli\plant2\moss\plant_moss10.jpg             	1	2	1	plant_moss10.jpg     	plant2   	7	moss      	25	moss10      	259	alive    	1	still	0	natural 	1	n	0	0    	 	0.0	0	124.473091399996	124.573007499916	0.0999160999199375
103262	100	115	stimuli\nonmovArt\mug\nma_mug09.jpg              	1	2	1	nma_mug09.jpg        	nonmovArt	4	mug       	26	mug09       	268	not_alive	0	still	0	artefact	0	n	0	0    	 	0.0	0	124.623105999897	124.72299099993	0.0998850000323727
103412	100	116	stimuli\plant2\clover\plant_clover05.jpg         	1	2	1	plant_clover05.jpg   	plant2   	7	clover    	9	clover05    	94	alive    	1	still	0	natural 	1	n	0	0    	 	0.0	0	124.773079099949	124.873013999895	0.0999348999466747
103562	100	117	stimuli\animals2\tiger\animal_tiger07.jpg        	1	2	1	animal_tiger07.jpg   	animals2 	1	tiger     	33	tiger07     	336	alive    	1	moves	1	natural 	1	n	0	0    	 	0.0	0	124.92310019989999	125.023009599885	0.0999093999853357
103712	100	118	stimuli\animals\eagle\animal_eagle07.jpg         	1	2	1	animal_eagle07.jpg   	animals  	0	eagle     	13	eagle07     	136	alive    	1	moves	1	natural 	1	n	0	0    	 	0.0	0	125.073088199948	125.173001999967	0.0999138000188395
103862	100	119	stimuli\animals\dog\animal_dog07.jpg             	1	2	1	animal_dog07.jpg     	animals  	0	dog       	11	dog07       	116	alive    	1	moves	1	natural 	1	n	0	0    	 	0.0	0	125.22308689996099	125.322999699973	0.099912800011225
104012	100	120	stimuli\nonmovNat\crystal\nmn_crystal03.jpg      	1	2	1	nmn_crystal03.jpg    	nonmovNat	5	crystal   	10	crystal03   	102	not_alive	0	still	0	natural 	1	n	0	0    	 	0.0	0	125.37309059989599	125.472995599965	0.0999050000682473
104162	100	121	stimuli\movNat\river\mn_river03.jpg              	1	2	1	mn_river03.jpg       	movNat   	3	river     	29	river03     	292	not_alive	0	moves	1	natural 	1	n	0	0    	 	0.0	0	125.52307629992701	125.622981699998	0.0999054000712931
104312	100	122	stimuli\plant2\moss\plant_moss05.jpg             	1	2	1	plant_moss05.jpg     	plant2   	7	moss      	25	moss05      	254	alive    	1	still	0	natural 	1	n	1	0    	 	0.0	0	125.67308149998999	125.772983999923	0.0999024999327957
104462	100	123	stimuli\movNat\hotspring\mn_hotspring05.jpg      	1	2	1	mn_hotspring05.jpg   	movNat   	3	hotspring 	21	hotspring05 	214	not_alive	0	moves	1	natural 	1	n	0	1    	f	0.25306679995264897	1	125.823083399911	125.9229778999	0.0998944999882951
104612	100	124	stimuli\plant2\moss\plant_moss02.jpg             	1	2	1	plant_moss02.jpg     	plant2   	7	moss      	25	moss02      	251	alive    	1	still	0	natural 	1	n	0	0    	 	0.0	0	125.973097499926	126.073074699962	0.0999772000359371
104762	100	125	stimuli\animals\horse\animal_horse03.jpg         	1	2	1	animal_horse03.jpg   	animals  	0	horse     	20	horse03     	202	alive    	1	moves	1	natural 	1	n	0	0    	 	0.0	0	126.12318059999998	126.22299639997101	0.0998157999711111
104912	100	126	stimuli\plant2\clover\plant_clover07.jpg         	1	2	1	plant_clover07.jpg   	plant2   	7	clover    	9	clover07    	96	alive    	1	still	0	natural 	1	n	0	0    	 	0.0	0	126.273071299889	126.37298789992902	0.0999166000401601
105062	100	127	stimuli\plant\tree\plant_tree04.jpg              	1	2	1	plant_tree04.jpg     	plant    	6	tree      	35	tree04      	353	alive    	1	still	0	natural 	1	n	0	0    	 	0.0	0	126.423062699963	126.522988599958	0.0999258999945596
105212	100	128	stimuli\animals\eagle\animal_eagle08.jpg         	1	2	1	animal_eagle08.jpg   	animals  	0	eagle     	13	eagle08     	137	alive    	1	moves	1	natural 	1	n	0	0    	 	0.0	0	126.5730798	126.67301549995301	0.0999356999527663
105362	100	129	stimuli\movArt\car\ma_car05.jpg                  	1	2	1	ma_car05.jpg         	movArt   	2	car       	5	car05       	54	not_alive	0	moves	1	artefact	0	n	0	0    	 	0.0	0	126.72312729991998	126.82297799992399	0.0998507000040263
105512	100	130	stimuli\movArt\boat\ma_boat03.jpg                	1	2	1	ma_boat03.jpg        	movArt   	2	boat      	2	boat03      	22	not_alive	0	moves	1	artefact	0	n	0	0    	 	0.0	0	126.87308099994	126.972989399917	0.0999083999777212
105662	100	131	stimuli\movArt\bus\ma_bus05.jpg                  	1	2	1	ma_bus05.jpg         	movArt   	2	bus       	3	bus05       	34	not_alive	0	moves	1	artefact	0	n	0	0    	 	0.0	0	127.023067599977	127.122984799906	0.0999171999283135
105812	100	132	stimuli\animals\horse\animal_horse08.jpg         	1	2	1	animal_horse08.jpg   	animals  	0	horse     	20	horse08     	207	alive    	1	moves	1	natural 	1	n	0	0    	 	0.0	0	127.17306229996001	127.272982899914	0.0999205999542027
105962	100	133	stimuli\nonmovNat\rock\nmn_rock08.jpg            	1	2	1	nmn_rock08.jpg       	nonmovNat	5	rock      	30	rock08      	307	not_alive	0	still	0	natural 	1	n	0	0    	 	0.0	0	127.32306729990499	127.422973799985	0.099906500079669
106112	100	134	stimuli\animals\dolphin\animal_dolphin08.jpg     	1	2	1	animal_dolphin08.jpg 	animals  	0	dolphin   	12	dolphin08   	127	alive    	1	moves	1	natural 	1	n	0	0    	 	0.0	0	127.473063099897	127.572982299956	0.0999192000599578
106262	100	135	stimuli\plant2\fern\plant_fern04.jpg             	1	2	1	plant_fern04.jpg     	plant2   	7	fern      	14	fern04      	143	alive    	1	still	0	natural 	1	n	0	0    	 	0.0	0	127.62307279999399	127.722959399922	0.0998865999281406
106412	100	136	stimuli\animals2\lemur\animal_lemur05.jpg        	1	2	1	animal_lemur05.jpg   	animals2 	1	lemur     	23	lemur05     	234	alive    	1	moves	1	natural 	1	n	0	0    	 	0.0	0	127.773058199906	127.873042299994	0.0999841000884771
106562	100	137	stimuli\nonmovNat\shell\nmn_shell02.jpg          	1	2	1	nmn_shell02.jpg      	nonmovNat	5	shell     	32	shell02     	321	not_alive	0	still	0	natural 	1	n	0	0    	 	0.0	0	127.923075499944	128.022983799921	0.0999082999769598
106712	100	138	stimuli\animals\dog\animal_dog03.jpg             	1	2	1	animal_dog03.jpg     	animals  	0	dog       	11	dog03       	112	alive    	1	moves	1	natural 	1	n	0	0    	 	0.0	0	128.07306859991502	128.172970199958	0.099901600042358
106862	100	139	stimuli\plant\grass\plant_grass03.jpg            	1	2	1	plant_grass03.jpg    	plant    	6	grass     	17	grass03     	172	alive    	1	still	0	natural 	1	n	0	0    	 	0.0	0	128.223048199899	128.322973199887	0.0999249999877065
107012	100	140	stimuli\animals2\bee\animal_bee02.jpg            	1	2	1	animal_bee02.jpg     	animals2 	1	bee       	0	bee02       	1	alive    	1	moves	1	natural 	1	n	0	0    	 	0.0	0	128.373056699988	128.472976399935	0.0999196999473497
107162	100	141	stimuli\animals\cat\animal_cat06.jpg             	1	2	1	animal_cat06.jpg     	animals  	0	cat       	6	cat06       	65	alive    	1	moves	1	natural 	1	n	0	0    	 	0.0	0	128.523045999929	128.622973199934	0.0999272000044584
107312	100	142	stimuli\animals2\whale\animal_whale07.jpg        	1	2	1	animal_whale07.jpg   	animals2 	1	whale     	39	whale07     	396	alive    	1	moves	1	natural 	1	n	0	0    	 	0.0	0	128.673050499987	128.772968799924	0.0999182999366894
107462	100	143	stimuli\plant\flower\plant_flower08.jpg          	1	2	1	plant_flower08.jpg   	plant    	6	flower    	16	flower08    	167	alive    	1	still	0	natural 	1	n	0	0    	 	0.0	0	128.823065799894	128.922970999964	0.0999052000697702
107612	100	144	stimuli\nonmovNat\rock\nmn_rock04.jpg            	1	2	1	nmn_rock04.jpg       	nonmovNat	5	rock      	30	rock04      	303	not_alive	0	still	0	natural 	1	n	0	0    	 	0.0	0	128.973046200001	129.07296779996202	0.0999215999618172
107762	100	145	stimuli\nonmovNat\shell\nmn_shell02.jpg          	1	2	1	nmn_shell02.jpg      	nonmovNat	5	shell     	32	shell02     	321	not_alive	0	still	0	natural 	1	n	0	0    	 	0.0	0	129.123068999965	129.222971299896	0.0999022999312728
107912	100	146	stimuli\plant\vine\plant_vine05.jpg              	1	2	1	plant_vine05.jpg     	plant    	6	vine      	36	vine05      	364	alive    	1	still	0	natural 	1	n	0	0    	 	0.0	0	129.273058899911	129.372959499946	0.0999006000347435
108062	100	147	stimuli\plant\cactus\plant_cactus09.jpg          	1	2	1	plant_cactus09.jpg   	plant    	6	cactus    	4	cactus09    	48	alive    	1	still	0	natural 	1	n	0	0    	 	0.0	0	129.423055799911	129.522969999933	0.0999142000218853
108212	100	148	stimuli\animals\eagle\animal_eagle07.jpg         	1	2	1	animal_eagle07.jpg   	animals  	0	eagle     	13	eagle07     	136	alive    	1	moves	1	natural 	1	n	1	0    	 	0.0	0	129.573075899971	129.673167799949	0.100091899977997
108362	100	149	stimuli\animals2\pigeon\animal_pigeon04.jpg      	1	2	1	animal_pigeon04.jpg  	animals2 	1	pigeon    	28	pigeon04    	283	alive    	1	moves	1	natural 	1	n	0	0    	 	0.0	0	129.72305559995598	129.82295349997	0.0998979000141844
108512	100	150	stimuli\movNat\waves\mn_waves02.jpg              	1	2	1	mn_waves02.jpg       	movNat   	3	waves     	38	waves02     	381	not_alive	0	moves	1	natural 	1	n	0	1    	f	0.300170399947092	1	129.873053499963	129.972950099967	0.0998966000042855
108662	100	151	stimuli\nonmovArt\bench\nma_bench01.jpg          	1	2	1	nma_bench01.jpg      	nonmovArt	4	bench     	1	bench01     	10	not_alive	0	still	0	artefact	0	n	0	0    	 	0.0	0	130.023028999916	130.122963199974	0.0999342000577598
108812	100	152	stimuli\animals\dolphin\animal_dolphin07.jpg     	1	2	1	animal_dolphin07.jpg 	animals  	0	dolphin   	12	dolphin07   	126	alive    	1	moves	1	natural 	1	n	0	0    	 	0.0	0	130.1730390999	130.272959799971	0.0999207000713795
108962	100	153	stimuli\nonmovArt\headphones\nma_headphones06.jpg	1	2	1	nma_headphones06.jpg 	nonmovArt	4	headphones	18	headphones06	185	not_alive	0	still	0	artefact	0	n	0	0    	 	0.0	0	130.32303999993	130.422948899912	0.0999088999815285
109112	100	154	stimuli\animals2\tiger\animal_tiger02.jpg        	1	2	1	animal_tiger02.jpg   	animals2 	1	tiger     	33	tiger02     	331	alive    	1	moves	1	natural 	1	n	0	0    	 	0.0	0	130.47303999995302	130.572961499914	0.0999214999610558
109262	100	155	stimuli\movArt\helicopter\ma_helicopter03.jpg    	1	2	1	ma_helicopter03.jpg  	movArt   	2	helicopter	19	helicopter03	192	not_alive	0	moves	1	artefact	0	n	0	0    	 	0.0	0	130.62304929993098	130.7229564999	0.0999071999685838
109412	100	156	stimuli\movArt\train\ma_train09.jpg              	1	2	1	ma_train09.jpg       	movArt   	2	train     	34	train09     	348	not_alive	0	moves	1	artefact	0	n	0	0    	 	0.0	0	130.773038599989	130.872954899911	0.0999162999214604
109562	100	157	stimuli\animals\dolphin\animal_dolphin03.jpg     	1	2	1	animal_dolphin03.jpg 	animals  	0	dolphin   	12	dolphin03   	122	alive    	1	moves	1	natural 	1	n	0	0    	 	0.0	0	130.923048399971	131.022942199954	0.09989379998296499
109712	100	158	stimuli\movNat\waterfall\mn_waterfall07.jpg      	1	2	1	mn_waterfall07.jpg   	movNat   	3	waterfall 	37	waterfall07 	376	not_alive	0	moves	1	natural 	1	n	0	0    	 	0.0	0	131.07305079989598	131.172952099936	0.0999013000400736
109862	100	159	stimuli\plant2\clover\plant_clover04.jpg         	1	2	1	plant_clover04.jpg   	plant2   	7	clover    	9	clover04    	93	alive    	1	still	0	natural 	1	n	0	0    	 	0.0	0	131.223053699941	131.322146299994	0.0990926000522449
112345	100	160	stimuli\animals\horse\animal_horse06.jpg         	1	3	1	animal_horse06.jpg   	animals  	0	horse     	20	horse06     	205	alive    	1	moves	1	natural 	1	n	0	0    	 	0.0	0	133.70548169990101	133.805464199977	0.0999825000762939
112495	100	161	stimuli\movNat\waterfall\mn_waterfall06.jpg      	1	3	1	mn_waterfall06.jpg   	movNat   	3	waterfall 	37	waterfall06 	375	not_alive	0	moves	1	natural 	1	n	0	0    	 	0.0	0	133.85547319997602	133.955467799911	0.0999945999355986
112645	100	162	stimuli\nonmovNat\sand\nmn_sand09.jpg            	1	3	1	nmn_sand09.jpg       	nonmovNat	5	sand      	31	sand09      	318	not_alive	0	still	0	natural 	1	n	0	0    	 	0.0	0	134.00547099998198	134.105462599895	0.0999915999127552
112795	100	163	stimuli\animals2\tiger\animal_tiger09.jpg        	1	3	1	animal_tiger09.jpg   	animals2 	1	tiger     	33	tiger09     	338	alive    	1	moves	1	natural 	1	n	0	0    	 	0.0	0	134.155475499923	134.255463599926	0.0999881000025198
112945	100	164	stimuli\nonmovNat\cliff\nmn_cliff08.jpg          	1	3	1	nmn_cliff08.jpg      	nonmovNat	5	cliff     	7	cliff08     	77	not_alive	0	still	0	natural 	1	n	0	0    	 	0.0	0	134.305469099898	134.40545689989798	0.0999878000002354
113095	100	165	stimuli\nonmovNat\sand\nmn_sand01.jpg            	1	3	1	nmn_sand01.jpg       	nonmovNat	5	sand      	31	sand01      	310	not_alive	0	still	0	natural 	1	n	0	0    	 	0.0	0	134.455469599925	134.555456499918	0.0999868999933824
113245	100	166	stimuli\animals\dog\animal_dog01.jpg             	1	3	1	animal_dog01.jpg     	animals  	0	dog       	11	dog01       	110	alive    	1	moves	1	natural 	1	n	0	0    	 	0.0	0	134.605468799942	134.705457399949	0.09998860000632699
113395	100	167	stimuli\nonmovArt\lock\nma_lock10.jpg            	1	3	1	nma_lock10.jpg       	nonmovArt	4	lock      	24	lock10      	249	not_alive	0	still	0	artefact	0	n	0	0    	 	0.0	0	134.755466699949	134.85545579996	0.0999891000101342
113545	100	168	stimuli\movArt\bus\ma_bus02.jpg                  	1	3	1	ma_bus02.jpg         	movArt   	2	bus       	3	bus02       	31	not_alive	0	moves	1	artefact	0	n	0	0    	 	0.0	0	134.905465499964	135.005455499981	0.0999900000169873
113695	100	169	stimuli\movNat\hotspring\mn_hotspring06.jpg      	1	3	1	mn_hotspring06.jpg   	movNat   	3	hotspring 	21	hotspring06 	215	not_alive	0	moves	1	natural 	1	n	0	0    	 	0.0	0	135.055464999983	135.155456499895	0.0999914999119937
113845	100	170	stimuli\movNat\fire\mn_fire07.jpg                	1	3	1	mn_fire07.jpg        	movNat   	3	fire      	15	fire07      	156	not_alive	0	moves	1	natural 	1	n	0	0    	 	0.0	0	135.205463199993	135.30545019998698	0.0999869999941438
113995	100	171	stimuli\movNat\fire\mn_fire09.jpg                	1	3	1	mn_fire09.jpg        	movNat   	3	fire      	15	fire09      	158	not_alive	0	moves	1	natural 	1	n	0	0    	 	0.0	0	135.355460499995	135.455451499904	0.0999909999081865
114145	100	172	stimuli\plant\grass\plant_grass09.jpg            	1	3	1	plant_grass09.jpg    	plant    	6	grass     	17	grass09     	178	alive    	1	still	0	natural 	1	n	0	0    	 	0.0	0	135.505460599903	135.605453099939	0.0999925000360235
114295	100	173	stimuli\plant2\palmtree\plant_palmtree09.jpg     	1	3	1	plant_palmtree09.jpg 	plant2   	7	palmtree  	27	palmtree09  	278	alive    	1	still	0	natural 	1	n	1	0    	 	0.0	0	135.655459699919	135.75544839992702	0.0999887000070884
114445	100	174	stimuli\animals\eagle\animal_eagle02.jpg         	1	3	1	animal_eagle02.jpg   	animals  	0	eagle     	13	eagle02     	131	alive    	1	moves	1	natural 	1	n	0	0    	 	0.0	0	135.805460399948	135.90544839995002	0.0999880000017583
114595	100	175	stimuli\movNat\fire\mn_fire06.jpg                	1	3	1	mn_fire06.jpg        	movNat   	3	fire      	15	fire06      	155	not_alive	0	moves	1	natural 	1	n	0	1    	f	0.39197450003121004	1	135.955455799936	136.055449099978	0.0999933000421151
114745	100	176	stimuli\animals\cat\animal_cat09.jpg             	1	3	1	animal_cat09.jpg     	animals  	0	cat       	6	cat09       	68	alive    	1	moves	1	natural 	1	n	0	0    	 	0.0	0	136.105455599958	136.205445399974	0.0999898000154644
114895	100	177	stimuli\animals\cat\animal_cat10.jpg             	1	3	1	animal_cat10.jpg     	animals  	0	cat       	6	cat10       	69	alive    	1	moves	1	natural 	1	n	0	0    	 	0.0	0	136.255455099978	136.355442799977	0.099987699999474
115045	100	178	stimuli\nonmovNat\shell\nmn_shell08.jpg          	1	3	1	nmn_shell08.jpg      	nonmovNat	5	shell     	32	shell08     	327	not_alive	0	still	0	natural 	1	n	0	0    	 	0.0	0	136.405451699975	136.505443799891	0.0999920999165624
115195	100	179	stimuli\animals2\tiger\animal_tiger01.jpg        	1	3	1	animal_tiger01.jpg   	animals2 	1	tiger     	33	tiger01     	330	alive    	1	moves	1	natural 	1	n	0	0    	 	0.0	0	136.555452099885	136.655442799907	0.0999907000223174
115345	100	180	stimuli\nonmovArt\clothespeg\nma_clothespeg03.jpg	1	3	1	nma_clothespeg03.jpg 	nonmovArt	4	clothespeg	8	clothespeg03	82	not_alive	0	still	0	artefact	0	n	0	0    	 	0.0	0	136.70545599993798	136.805439099902	0.0999830999644473
115495	100	181	stimuli\plant2\moss\plant_moss08.jpg             	1	3	1	plant_moss08.jpg     	plant2   	7	moss      	25	moss08      	257	alive    	1	still	0	natural 	1	n	0	0    	 	0.0	0	136.85548369993901	136.955441999948	0.0999583000084385
115645	100	182	stimuli\nonmovArt\headphones\nma_headphones04.jpg	1	3	1	nma_headphones04.jpg 	nonmovArt	4	headphones	18	headphones04	183	not_alive	0	still	0	artefact	0	n	0	0    	 	0.0	0	137.005446599913	137.10543949995198	0.0999929000390693
115795	100	183	stimuli\plant2\lemontree\plant_lemontree09.jpg   	1	3	1	plant_lemontree09.jpg	plant2   	7	lemontree 	22	lemontree09 	228	alive    	1	still	0	natural 	1	n	0	0    	 	0.0	0	137.155448199948	137.255437299958	0.0999891000101342
115945	100	184	stimuli\animals2\pigeon\animal_pigeon01.jpg      	1	3	1	animal_pigeon01.jpg  	animals2 	1	pigeon    	28	pigeon01    	280	alive    	1	moves	1	natural 	1	n	0	0    	 	0.0	0	137.305444299942	137.40543839998998	0.0999941000482067
116095	100	185	stimuli\movArt\helicopter\ma_helicopter04.jpg    	1	3	1	ma_helicopter04.jpg  	movArt   	2	helicopter	19	helicopter04	193	not_alive	0	moves	1	artefact	0	n	0	0    	 	0.0	0	137.455445399974	137.55543669999997	0.0999913000268861
116245	100	186	stimuli\plant2\fern\plant_fern02.jpg             	1	3	1	plant_fern02.jpg     	plant2   	7	fern      	14	fern02      	141	alive    	1	still	0	natural 	1	n	0	0    	 	0.0	0	137.605442799977	137.705434599891	0.09999179991427802
116395	100	187	stimuli\animals2\bee\animal_bee08.jpg            	1	3	1	animal_bee08.jpg     	animals2 	1	bee       	0	bee08       	7	alive    	1	moves	1	natural 	1	n	0	0    	 	0.0	0	137.75544359989	137.855433199904	0.0999896000139415
116545	100	188	stimuli\plant2\clover\plant_clover03.jpg         	1	3	1	plant_clover03.jpg   	plant2   	7	clover    	9	clover03    	92	alive    	1	still	0	natural 	1	n	1	1    	f	0.10677220008801701	1	137.905442499905	138.005429799901	0.0999872999964282
116695	100	189	stimuli\plant\cactus\plant_cactus02.jpg          	1	3	1	plant_cactus02.jpg   	plant    	6	cactus    	4	cactus02    	41	alive    	1	still	0	natural 	1	n	0	0    	 	0.0	0	138.055407599895	138.155430799932	0.10002320003695801
116845	100	190	stimuli\nonmovArt\headphones\nma_headphones02.jpg	1	3	1	nma_headphones02.jpg 	nonmovArt	4	headphones	18	headphones02	181	not_alive	0	still	0	artefact	0	n	0	0    	 	0.0	0	138.205438299919	138.305433199974	0.0999949000542983
116995	100	191	stimuli\plant\cactus\plant_cactus07.jpg          	1	3	1	plant_cactus07.jpg   	plant    	6	cactus    	4	cactus07    	46	alive    	1	still	0	natural 	1	n	0	0    	 	0.0	0	138.355438399944	138.455430399976	0.0999920000322163
117145	100	192	stimuli\nonmovArt\bench\nma_bench02.jpg          	1	3	1	nma_bench02.jpg      	nonmovArt	4	bench     	1	bench02     	11	not_alive	0	still	0	artefact	0	n	0	0    	 	0.0	0	138.505445399904	138.605447499896	0.10000209999270698
117295	100	193	stimuli\animals\dog\animal_dog06.jpg             	1	3	1	animal_dog06.jpg     	animals  	0	dog       	11	dog06       	115	alive    	1	moves	1	natural 	1	n	0	0    	 	0.0	0	138.65544959995898	138.755430499907	0.0999808999476954
117445	100	194	stimuli\nonmovArt\mug\nma_mug08.jpg              	1	3	1	nma_mug08.jpg        	nonmovArt	4	mug       	26	mug08       	267	not_alive	0	still	0	artefact	0	n	0	0    	 	0.0	0	138.805438299896	138.905423299992	0.0999850000953301
117595	100	195	stimuli\nonmovArt\lock\nma_lock01.jpg            	1	3	1	nma_lock01.jpg       	nonmovArt	4	lock      	24	lock01      	240	not_alive	0	still	0	artefact	0	n	0	0    	 	0.0	0	138.95543979993099	139.05542219989	0.0999823999591171
117745	100	196	stimuli\movNat\waves\mn_waves07.jpg              	1	3	1	mn_waves07.jpg       	movNat   	3	waves     	38	waves07     	386	not_alive	0	moves	1	natural 	1	n	0	0    	 	0.0	0	139.10543689993202	139.205423499923	0.099986599991098
117895	100	197	stimuli\plant\vine\plant_vine04.jpg              	1	3	1	plant_vine04.jpg     	plant    	6	vine      	36	vine04      	363	alive    	1	still	0	natural 	1	n	0	0    	 	0.0	0	139.25543489993998	139.35542139993	0.0999864999903366
118045	100	198	stimuli\plant\grass\plant_grass09.jpg            	1	3	1	plant_grass09.jpg    	plant    	6	grass     	17	grass09     	178	alive    	1	still	0	natural 	1	n	0	0    	 	0.0	0	139.405428199912	139.50542359997	0.0999954000581056
118195	100	199	stimuli\nonmovNat\rock\nmn_rock08.jpg            	1	3	1	nmn_rock08.jpg       	nonmovNat	5	rock      	30	rock08      	307	not_alive	0	still	0	natural 	1	n	0	0    	 	0.0	0	139.555434899987	139.655426199897	0.0999912999104708
118345	100	200	stimuli\movNat\river\mn_river08.jpg              	1	3	1	mn_river08.jpg       	movNat   	3	river     	29	river08     	297	not_alive	0	moves	1	natural 	1	n	0	0    	 	0.0	0	139.705431899987	139.805420999997	0.0999891000101342
118495	100	201	stimuli\nonmovArt\mug\nma_mug07.jpg              	1	3	1	nma_mug07.jpg        	nonmovArt	4	mug       	26	mug07       	266	not_alive	0	still	0	artefact	0	n	0	0    	 	0.0	0	139.855425399961	139.9554204999	0.0999950999394059
118645	100	202	stimuli\movArt\boat\ma_boat08.jpg                	1	3	1	ma_boat08.jpg        	movArt   	2	boat      	2	boat08      	27	not_alive	0	moves	1	artefact	0	n	0	0    	 	0.0	0	140.005429999903	140.1054153	0.0999853000976145
118795	100	203	stimuli\nonmovArt\lock\nma_lock01.jpg            	1	3	1	nma_lock01.jpg       	nonmovArt	4	lock      	24	lock01      	240	not_alive	0	still	0	artefact	0	n	0	0    	 	0.0	0	140.155425799894	140.255414799904	0.0999890000093728
118945	100	204	stimuli\movArt\helicopter\ma_helicopter08.jpg    	1	3	1	ma_helicopter08.jpg  	movArt   	2	helicopter	19	helicopter08	197	not_alive	0	moves	1	artefact	0	n	0	0    	 	0.0	0	140.305434399983	140.405462499941	0.100028099957854
119095	100	205	stimuli\movArt\train\ma_train10.jpg              	1	3	1	ma_train10.jpg       	movArt   	2	train     	34	train10     	349	not_alive	0	moves	1	artefact	0	n	0	0    	 	0.0	0	140.455425799941	140.55541149992501	0.099985699984245
119245	100	206	stimuli\animals2\pigeon\animal_pigeon10.jpg      	1	3	1	animal_pigeon10.jpg  	animals2 	1	pigeon    	28	pigeon10    	289	alive    	1	moves	1	natural 	1	n	0	0    	 	0.0	0	140.605421699933	140.705417899997	0.0999962000641971
119395	100	207	stimuli\nonmovNat\crystal\nmn_crystal09.jpg      	1	3	1	nmn_crystal09.jpg    	nonmovNat	5	crystal   	10	crystal09   	108	not_alive	0	still	0	natural 	1	n	0	0    	 	0.0	0	140.755422399961	140.85540919995398	0.0999867999926209
119545	100	208	stimuli\plant2\palmtree\plant_palmtree04.jpg     	1	3	1	plant_palmtree04.jpg 	plant2   	7	palmtree  	27	palmtree04  	273	alive    	1	still	0	natural 	1	n	0	0    	 	0.0	0	140.905421899981	141.005413999897	0.0999920999165624
119695	100	209	stimuli\nonmovNat\crystal\nmn_crystal10.jpg      	1	3	1	nmn_crystal10.jpg    	nonmovNat	5	crystal   	10	crystal10   	109	not_alive	0	still	0	natural 	1	n	0	0    	 	0.0	0	141.055416999967	141.15540519997	0.0999882000032812
119845	100	210	stimuli\movArt\car\ma_car02.jpg                  	1	3	1	ma_car02.jpg         	movArt   	2	car       	5	car02       	51	not_alive	0	moves	1	artefact	0	n	1	0    	 	0.0	0	141.205422699917	141.305409199907	0.0999864999903366
119995	100	211	stimuli\animals2\whale\animal_whale05.jpg        	1	3	1	animal_whale05.jpg   	animals2 	1	whale     	39	whale05     	394	alive    	1	moves	1	natural 	1	n	0	1    	f	0.250189900049008	1	141.35542049992398	141.455384499975	0.0999640000518411
120145	100	212	stimuli\movNat\hotspring\mn_hotspring08.jpg      	1	3	1	mn_hotspring08.jpg   	movNat   	3	hotspring 	21	hotspring08 	217	not_alive	0	moves	1	natural 	1	n	0	0    	 	0.0	0	141.505413299892	141.60541029996202	0.0999970000702887
120295	100	213	stimuli\movNat\waves\mn_waves01.jpg              	1	3	1	mn_waves01.jpg       	movNat   	3	waves     	38	waves01     	380	not_alive	0	moves	1	natural 	1	n	0	0    	 	0.0	0	141.655418799957	141.755401499919	0.0999826999614015
120445	100	214	stimuli\nonmovArt\mug\nma_mug05.jpg              	1	3	1	nma_mug05.jpg        	nonmovArt	4	mug       	26	mug05       	264	not_alive	0	still	0	artefact	0	n	0	0    	 	0.0	0	141.805415699957	141.905400199932	0.0999844999751076
120595	100	215	stimuli\movArt\train\ma_train01.jpg              	1	3	1	ma_train01.jpg       	movArt   	2	train     	34	train01     	340	not_alive	0	moves	1	artefact	0	n	0	0    	 	0.0	0	141.955414999975	142.05540449998801	0.09998950001317998
120745	100	216	stimuli\movArt\boat\ma_boat09.jpg                	1	3	1	ma_boat09.jpg        	movArt   	2	boat      	2	boat09      	28	not_alive	0	moves	1	artefact	0	n	0	0    	 	0.0	0	142.105403799913	142.205415399978	0.100011600065045
120895	100	217	stimuli\plant\flower\plant_flower05.jpg          	1	3	1	plant_flower05.jpg   	plant    	6	flower    	16	flower05    	164	alive    	1	still	0	natural 	1	n	0	0    	 	0.0	0	142.2554122	142.355396499974	0.0999842999735847
121045	100	218	stimuli\animals2\bee\animal_bee10.jpg            	1	3	1	animal_bee10.jpg     	animals2 	1	bee       	0	bee10       	9	alive    	1	moves	1	natural 	1	n	0	0    	 	0.0	0	142.40540389996	142.505395199987	0.0999913000268861
121195	100	219	stimuli\plant\tree\plant_tree03.jpg              	1	3	1	plant_tree03.jpg     	plant    	6	tree      	35	tree03      	352	alive    	1	still	0	natural 	1	n	0	0    	 	0.0	0	142.555409699911	142.655401499942	0.0999918000306934
121345	100	220	stimuli\movArt\bus\ma_bus05.jpg                  	1	3	1	ma_bus05.jpg         	movArt   	2	bus       	3	bus05       	34	not_alive	0	moves	1	artefact	0	n	0	0    	 	0.0	0	142.705408099922	142.80618449999	0.100776400067843
121496	100	221	stimuli\plant\flower\plant_flower09.jpg          	1	3	1	plant_flower09.jpg   	plant    	6	flower    	16	flower09    	168	alive    	1	still	0	natural 	1	n	0	0    	 	0.0	0	142.85628049995302	142.956205499941	0.0999249999877065
121646	100	222	stimuli\nonmovNat\sand\nmn_sand04.jpg            	1	3	1	nmn_sand04.jpg       	nonmovNat	5	sand      	31	sand04      	313	not_alive	0	still	0	natural 	1	n	0	0    	 	0.0	0	143.006313299993	143.106217199937	0.099903899943456
121796	100	223	stimuli\movNat\river\mn_river04.jpg              	1	3	1	mn_river04.jpg       	movNat   	3	river     	29	river04     	293	not_alive	0	moves	1	natural 	1	n	0	0    	 	0.0	0	143.156288299942	143.256188099971	0.0998998000286519
121946	100	224	stimuli\nonmovNat\cliff\nmn_cliff05.jpg          	1	3	1	nmn_cliff05.jpg      	nonmovNat	5	cliff     	7	cliff05     	74	not_alive	0	still	0	natural 	1	n	0	1    	f	0.0	0	143.306283099926	143.406180499936	0.0998974000103771
122096	100	225	stimuli\animals2\lemur\animal_lemur04.jpg        	1	3	1	animal_lemur04.jpg   	animals2 	1	lemur     	23	lemur04     	233	alive    	1	moves	1	natural 	1	n	0	0    	 	0.0	0	143.45626809995198	143.55618869990602	0.0999205999542027
122246	100	226	stimuli\movArt\car\ma_car02.jpg                  	1	3	1	ma_car02.jpg         	movArt   	2	car       	5	car02       	51	not_alive	0	moves	1	artefact	0	n	0	0    	 	0.0	0	143.60626609996	143.706204999937	0.0999388999771326
122396	100	227	stimuli\plant2\lemontree\plant_lemontree03.jpg   	1	3	1	plant_lemontree03.jpg	plant2   	7	lemontree 	22	lemontree03 	222	alive    	1	still	0	natural 	1	n	1	0    	 	0.0	0	143.756309099961	143.856173499953	0.0998643999919295
122546	100	228	stimuli\plant2\lemontree\plant_lemontree02.jpg   	1	3	1	plant_lemontree02.jpg	plant2   	7	lemontree 	22	lemontree02 	221	alive    	1	still	0	natural 	1	n	0	0    	 	0.0	0	143.906456699944	144.006257599918	0.0998008999740704
122696	100	229	stimuli\nonmovArt\bench\nma_bench04.jpg          	1	3	1	nma_bench04.jpg      	nonmovArt	4	bench     	1	bench04     	13	not_alive	0	still	0	artefact	0	n	0	0    	 	0.0	0	144.05633469997	144.156165999942	0.0998312999727204
122846	100	230	stimuli\plant\tree\plant_tree08.jpg              	1	3	1	plant_tree08.jpg     	plant    	6	tree      	35	tree08      	357	alive    	1	still	0	natural 	1	n	0	0    	 	0.0	0	144.20628399995599	144.306175099919	0.0998910999624058
122996	100	231	stimuli\plant\vine\plant_vine02.jpg              	1	3	1	plant_vine02.jpg     	plant    	6	vine      	36	vine02      	361	alive    	1	still	0	natural 	1	n	0	0    	 	0.0	0	144.3562734999	144.456176899956	0.0999034000560641
123146	100	232	stimuli\animals2\whale\animal_whale07.jpg        	1	3	1	animal_whale07.jpg   	animals2 	1	whale     	39	whale07     	396	alive    	1	moves	1	natural 	1	n	0	0    	 	0.0	0	144.506277199951	144.606199499918	0.0999222999671474
123296	100	233	stimuli\animals2\lemur\animal_lemur02.jpg        	1	3	1	animal_lemur02.jpg   	animals2 	1	lemur     	23	lemur02     	231	alive    	1	moves	1	natural 	1	n	0	0    	 	0.0	0	144.656292799977	144.756158199976	0.09986539999954401
123446	100	234	stimuli\nonmovNat\cliff\nmn_cliff04.jpg          	1	3	1	nmn_cliff04.jpg      	nonmovNat	5	cliff     	7	cliff04     	73	not_alive	0	still	0	natural 	1	n	0	0    	 	0.0	0	144.80628629995002	144.906197399949	0.0999110999982804
123596	100	235	stimuli\nonmovArt\clothespeg\nma_clothespeg10.jpg	1	3	1	nma_clothespeg10.jpg 	nonmovArt	4	clothespeg	8	clothespeg10	89	not_alive	0	still	0	artefact	0	n	0	0    	 	0.0	0	144.956255099969	145.056187199894	0.0999320999253541
123746	100	236	stimuli\plant2\palmtree\plant_palmtree03.jpg     	1	3	1	plant_palmtree03.jpg 	plant2   	7	palmtree  	27	palmtree03  	272	alive    	1	still	0	natural 	1	n	0	0    	 	0.0	0	145.10625089996	145.20616639999201	0.0999155000317841
123896	100	237	stimuli\movNat\waterfall\mn_waterfall08.jpg      	1	3	1	mn_waterfall08.jpg   	movNat   	3	waterfall 	37	waterfall08 	377	not_alive	0	moves	1	natural 	1	n	0	0    	 	0.0	0	145.256275299937	145.356163599994	0.0998883000575006
124046	100	238	stimuli\plant2\fern\plant_fern09.jpg             	1	3	1	plant_fern09.jpg     	plant2   	7	fern      	14	fern09      	148	alive    	1	still	0	natural 	1	n	0	0    	 	0.0	0	145.4062674999	145.506165799918	0.0998983000172302
124196	100	239	stimuli\nonmovArt\clothespeg\nma_clothespeg02.jpg	1	3	1	nma_clothespeg02.jpg 	nonmovArt	4	clothespeg	8	clothespeg02	81	not_alive	0	still	0	artefact	0	n	0	0    	 	0.0	0	145.556290099979	145.65630279993601	0.100012699957006
125896	100	240	stimuli\nonmovArt\mug\nma_mug07.jpg              	1	4	1	nma_mug07.jpg        	nonmovArt	4	mug       	26	mug07       	266	not_alive	0	still	0	artefact	0	n	0	0    	 	0.0	0	147.25628369999998	147.35614849999502	0.0998647999949753
126046	100	241	stimuli\nonmovArt\bench\nma_bench05.jpg          	1	4	1	nma_bench05.jpg      	nonmovArt	4	bench     	1	bench05     	14	not_alive	0	still	0	artefact	0	n	0	0    	 	0.0	0	147.406245799968	147.506161400001	0.0999156000325456
126196	100	242	stimuli\plant2\clover\plant_clover01.jpg         	1	4	1	plant_clover01.jpg   	plant2   	7	clover    	9	clover01    	90	alive    	1	still	0	natural 	1	n	0	0    	 	0.0	0	147.556251199916	147.656147599919	0.0998964000027626
126346	100	243	stimuli\movNat\river\mn_river01.jpg              	1	4	1	mn_river01.jpg       	movNat   	3	river     	29	river01     	290	not_alive	0	moves	1	natural 	1	n	0	0    	 	0.0	0	147.706257499987	147.80615139997101	0.0998938999837264
126496	100	244	stimuli\nonmovNat\shell\nmn_shell01.jpg          	1	4	1	nmn_shell01.jpg      	nonmovNat	5	shell     	32	shell01     	320	not_alive	0	still	0	natural 	1	n	0	0    	 	0.0	0	147.856224299991	147.956149099977	0.0999247999861836
126646	100	245	stimuli\plant\grass\plant_grass06.jpg            	1	4	1	plant_grass06.jpg    	plant    	6	grass     	17	grass06     	175	alive    	1	still	0	natural 	1	n	0	0    	 	0.0	0	148.00623379997	148.106156799942	0.0999229999724775
126796	100	246	stimuli\movArt\boat\ma_boat03.jpg                	1	4	1	ma_boat03.jpg        	movArt   	2	boat      	2	boat03      	22	not_alive	0	moves	1	artefact	0	n	0	0    	 	0.0	0	148.156229599961	148.256134799914	0.0999051999533549
126946	100	247	stimuli\plant2\fern\plant_fern05.jpg             	1	4	1	plant_fern05.jpg     	plant2   	7	fern      	14	fern05      	144	alive    	1	still	0	natural 	1	n	0	0    	 	0.0	0	148.3062490999	148.40616019989798	0.0999110999982804
127096	100	248	stimuli\plant2\palmtree\plant_palmtree10.jpg     	1	4	1	plant_palmtree10.jpg 	plant2   	7	palmtree  	27	palmtree10  	279	alive    	1	still	0	natural 	1	n	0	0    	 	0.0	0	148.456232399913	148.55615479999702	0.0999224000843241
127246	100	249	stimuli\nonmovArt\lock\nma_lock07.jpg            	1	4	1	nma_lock07.jpg       	nonmovArt	4	lock      	24	lock07      	246	not_alive	0	still	0	artefact	0	n	0	0    	 	0.0	0	148.606243699905	148.706154899905	0.0999111999990418
127396	100	250	stimuli\nonmovNat\sand\nmn_sand02.jpg            	1	4	1	nmn_sand02.jpg       	nonmovNat	5	sand      	31	sand02      	311	not_alive	0	still	0	natural 	1	n	0	0    	 	0.0	0	148.75624899996902	148.856178699993	0.0999297000234946
127546	100	251	stimuli\nonmovArt\clothespeg\nma_clothespeg09.jpg	1	4	1	nma_clothespeg09.jpg 	nonmovArt	4	clothespeg	8	clothespeg09	88	not_alive	0	still	0	artefact	0	n	0	0    	 	0.0	0	148.906243499951	149.006151799927	0.0999082999769598
127696	100	252	stimuli\plant2\clover\plant_clover05.jpg         	1	4	1	plant_clover05.jpg   	plant2   	7	clover    	9	clover05    	94	alive    	1	still	0	natural 	1	n	0	0    	 	0.0	0	149.05624969990498	149.156153499964	0.0999038000591099
127846	100	253	stimuli\movArt\train\ma_train06.jpg              	1	4	1	ma_train06.jpg       	movArt   	2	train     	34	train06     	345	not_alive	0	moves	1	artefact	0	n	0	0    	 	0.0	0	149.206228299998	149.306137999985	0.0999096999876201
127996	100	254	stimuli\plant2\moss\plant_moss10.jpg             	1	4	1	plant_moss10.jpg     	plant2   	7	moss      	25	moss10      	259	alive    	1	still	0	natural 	1	n	0	0    	 	0.0	0	149.356234899955	149.45614159992	0.0999066999647766
128146	100	255	stimuli\movNat\fire\mn_fire01.jpg                	1	4	1	mn_fire01.jpg        	movNat   	3	fire      	15	fire01      	150	not_alive	0	moves	1	natural 	1	n	0	0    	 	0.0	0	149.506215999951	149.606148799998	0.0999328000470996
128296	100	256	stimuli\nonmovNat\rock\nmn_rock07.jpg            	1	4	1	nmn_rock07.jpg       	nonmovNat	5	rock      	30	rock07      	306	not_alive	0	still	0	natural 	1	n	0	0    	 	0.0	0	149.656234499998	149.756134499912	0.0998999999137595
128446	100	257	stimuli\nonmovNat\cliff\nmn_cliff01.jpg          	1	4	1	nmn_cliff01.jpg      	nonmovNat	5	cliff     	7	cliff01     	70	not_alive	0	still	0	natural 	1	n	0	0    	 	0.0	0	149.806216699886	149.90614159998898	0.0999249001033604
128596	100	258	stimuli\movNat\hotspring\mn_hotspring06.jpg      	1	4	1	mn_hotspring06.jpg   	movNat   	3	hotspring 	21	hotspring06 	215	not_alive	0	moves	1	natural 	1	n	0	0    	 	0.0	0	149.956233099918	150.05614369991198	0.0999105999944731
128746	100	259	stimuli\nonmovNat\rock\nmn_rock02.jpg            	1	4	1	nmn_rock02.jpg       	nonmovNat	5	rock      	30	rock02      	301	not_alive	0	still	0	natural 	1	n	0	0    	 	0.0	0	150.10624339990298	150.206141199917	0.0998978000134229
128896	100	260	stimuli\animals2\whale\animal_whale05.jpg        	1	4	1	animal_whale05.jpg   	animals2 	1	whale     	39	whale05     	394	alive    	1	moves	1	natural 	1	n	0	0    	 	0.0	0	150.256235699984	150.356137699913	0.0999019999289885
129046	100	261	stimuli\nonmovArt\bench\nma_bench03.jpg          	1	4	1	nma_bench03.jpg      	nonmovArt	4	bench     	1	bench03     	12	not_alive	0	still	0	artefact	0	n	0	0    	 	0.0	0	150.406224099919	150.506136999931	0.0999129000119865
129196	100	262	stimuli\movNat\fire\mn_fire05.jpg                	1	4	1	mn_fire05.jpg        	movNat   	3	fire      	15	fire05      	154	not_alive	0	moves	1	natural 	1	n	0	0    	 	0.0	0	150.55622539995198	150.656142899999	0.0999175000470131
129346	100	263	stimuli\plant\tree\plant_tree02.jpg              	1	4	1	plant_tree02.jpg     	plant    	6	tree      	35	tree02      	351	alive    	1	still	0	natural 	1	n	0	0    	 	0.0	0	150.706218799925	150.806140199886	0.0999213999602943
129496	100	264	stimuli\movNat\waves\mn_waves08.jpg              	1	4	1	mn_waves08.jpg       	movNat   	3	waves     	38	waves08     	387	not_alive	0	moves	1	natural 	1	n	0	0    	 	0.0	0	150.856215899927	150.956140399911	0.0999244999838993
129646	100	265	stimuli\plant\grass\plant_grass02.jpg            	1	4	1	plant_grass02.jpg    	plant    	6	grass     	17	grass02     	171	alive    	1	still	0	natural 	1	n	0	0    	 	0.0	0	151.006222199998	151.106121499906	0.0998992999084293
129796	100	266	stimuli\movArt\car\ma_car10.jpg                  	1	4	1	ma_car10.jpg         	movArt   	2	car       	5	car10       	59	not_alive	0	moves	1	artefact	0	n	0	0    	 	0.0	0	151.156209899927	151.256113999989	0.0999041000613942
129946	100	267	stimuli\plant\cactus\plant_cactus10.jpg          	1	4	1	plant_cactus10.jpg   	plant    	6	cactus    	4	cactus10    	49	alive    	1	still	0	natural 	1	n	0	0    	 	0.0	0	151.306224799948	151.406124299974	0.0998995000263676
130096	100	268	stimuli\nonmovArt\bench\nma_bench01.jpg          	1	4	1	nma_bench01.jpg      	nonmovArt	4	bench     	1	bench01     	10	not_alive	0	still	0	artefact	0	n	0	0    	 	0.0	0	151.456214599893	151.556143999915	0.0999294000212103
130246	100	269	stimuli\animals2\tiger\animal_tiger08.jpg        	1	4	1	animal_tiger08.jpg   	animals2 	1	tiger     	33	tiger08     	337	alive    	1	moves	1	natural 	1	n	0	0    	 	0.0	0	151.606219299952	151.706122599891	0.0999032999388873
130396	100	270	stimuli\nonmovNat\crystal\nmn_crystal08.jpg      	1	4	1	nmn_crystal08.jpg    	nonmovNat	5	crystal   	10	crystal08   	107	not_alive	0	still	0	natural 	1	n	0	0    	 	0.0	0	151.75620199996	151.856108399923	0.0999063999624922
130546	100	271	stimuli\animals\eagle\animal_eagle10.jpg         	1	4	1	animal_eagle10.jpg   	animals  	0	eagle     	13	eagle10     	139	alive    	1	moves	1	natural 	1	n	0	0    	 	0.0	0	151.906206899905	152.006130499998	0.0999236000934615
130696	100	272	stimuli\movNat\river\mn_river02.jpg              	1	4	1	mn_river02.jpg       	movNat   	3	river     	29	river02     	291	not_alive	0	moves	1	natural 	1	n	0	0    	 	0.0	0	152.056207599933	152.15612379997	0.0999162000371143
130846	100	273	stimuli\nonmovArt\clothespeg\nma_clothespeg03.jpg	1	4	1	nma_clothespeg03.jpg 	nonmovArt	4	clothespeg	8	clothespeg03	82	not_alive	0	still	0	artefact	0	n	0	0    	 	0.0	0	152.20629299990802	152.306130899931	0.0998379000229761
130996	100	274	stimuli\movArt\bus\ma_bus08.jpg                  	1	4	1	ma_bus08.jpg         	movArt   	2	bus       	3	bus08       	37	not_alive	0	moves	1	artefact	0	n	0	0    	 	0.0	0	152.356207199977	152.45612499991	0.0999177999328822
131146	100	275	stimuli\plant2\lemontree\plant_lemontree10.jpg   	1	4	1	plant_lemontree10.jpg	plant2   	7	lemontree 	22	lemontree10 	229	alive    	1	still	0	natural 	1	n	0	1    	f	0.0	0	152.506200499949	152.606135699898	0.099935199948959
131296	100	276	stimuli\animals\dolphin\animal_dolphin08.jpg     	1	4	1	animal_dolphin08.jpg 	animals  	0	dolphin   	12	dolphin08   	127	alive    	1	moves	1	natural 	1	n	0	0    	 	0.0	0	152.656203599996	152.75611889991	0.0999152999138459
131446	100	277	stimuli\animals\horse\animal_horse09.jpg         	1	4	1	animal_horse09.jpg   	animals  	0	horse     	20	horse09     	208	alive    	1	moves	1	natural 	1	n	0	0    	 	0.0	0	152.80621239997	152.906117499922	0.0999050999525934
131596	100	278	stimuli\movArt\car\ma_car01.jpg                  	1	4	1	ma_car01.jpg         	movArt   	2	car       	5	car01       	50	not_alive	0	moves	1	artefact	0	n	0	0    	 	0.0	0	152.956198	153.056111199898	0.0999131998978555
131746	100	279	stimuli\nonmovArt\clothespeg\nma_clothespeg04.jpg	1	4	1	nma_clothespeg04.jpg 	nonmovArt	4	clothespeg	8	clothespeg04	83	not_alive	0	still	0	artefact	0	n	0	0    	 	0.0	0	153.106210799888	153.206143899937	0.0999331000493839
131895	100	280	stimuli\nonmovArt\mug\nma_mug10.jpg              	1	4	1	nma_mug10.jpg        	nonmovArt	4	mug       	26	mug10       	269	not_alive	0	still	0	artefact	0	n	0	0    	 	0.0	0	153.25618229992702	153.35610199999098	0.099919700063765
132046	100	281	stimuli\animals\dolphin\animal_dolphin05.jpg     	1	4	1	animal_dolphin05.jpg 	animals  	0	dolphin   	12	dolphin05   	124	alive    	1	moves	1	natural 	1	n	0	0    	 	0.0	0	153.406203699997	153.506106599933	0.0999028999358415
132196	100	282	stimuli\movNat\waterfall\mn_waterfall04.jpg      	1	4	1	mn_waterfall04.jpg   	movNat   	3	waterfall 	37	waterfall04 	373	not_alive	0	moves	1	natural 	1	n	0	0    	 	0.0	0	153.556214099983	153.656121799955	0.0999076999723911
132346	100	283	stimuli\animals2\bee\animal_bee07.jpg            	1	4	1	animal_bee07.jpg     	animals2 	1	bee       	0	bee07       	6	alive    	1	moves	1	natural 	1	n	0	0    	 	0.0	0	153.706191199948	153.806104199961	0.0999130000127479
132496	100	284	stimuli\animals2\pigeon\animal_pigeon08.jpg      	1	4	1	animal_pigeon08.jpg  	animals2 	1	pigeon    	28	pigeon08    	287	alive    	1	moves	1	natural 	1	n	0	0    	 	0.0	0	153.856205099961	153.956108999904	0.099903899943456
132646	100	285	stimuli\animals\horse\animal_horse10.jpg         	1	4	1	animal_horse10.jpg   	animals  	0	horse     	20	horse10     	209	alive    	1	moves	1	natural 	1	n	0	0    	 	0.0	0	154.00617619999701	154.10619569988899	0.10001949989236901
132796	100	286	stimuli\plant2\moss\plant_moss10.jpg             	1	4	1	plant_moss10.jpg     	plant2   	7	moss      	25	moss10      	259	alive    	1	still	0	natural 	1	n	0	0    	 	0.0	0	154.156414699974	154.25608839991	0.0996736999368295
132945	100	287	stimuli\animals\eagle\animal_eagle06.jpg         	1	4	1	animal_eagle06.jpg   	animals  	0	eagle     	13	eagle06     	135	alive    	1	moves	1	natural 	1	n	0	0    	 	0.0	0	154.306182199973	154.406108799973	0.0999265999998897
133095	100	288	stimuli\animals2\lemur\animal_lemur07.jpg        	1	4	1	animal_lemur07.jpg   	animals2 	1	lemur     	23	lemur07     	236	alive    	1	moves	1	natural 	1	n	0	0    	 	0.0	0	154.456168699893	154.556090899976	0.0999222000828012
133246	100	289	stimuli\movNat\waterfall\mn_waterfall04.jpg      	1	4	1	mn_waterfall04.jpg   	movNat   	3	waterfall 	37	waterfall04 	373	not_alive	0	moves	1	natural 	1	n	0	0    	 	0.0	0	154.606181399897	154.706084699952	0.0999033000553026
133395	100	290	stimuli\plant\vine\plant_vine01.jpg              	1	4	1	plant_vine01.jpg     	plant    	6	vine      	36	vine01      	360	alive    	1	still	0	natural 	1	n	0	0    	 	0.0	0	154.75616999995	154.856089399895	0.0999193999450653
133546	100	291	stimuli\nonmovNat\crystal\nmn_crystal09.jpg      	1	4	1	nmn_crystal09.jpg    	nonmovNat	5	crystal   	10	crystal09   	108	not_alive	0	still	0	natural 	1	n	0	0    	 	0.0	0	154.906176499906	155.006106799934	0.0999303000280633
133696	100	292	stimuli\animals2\pigeon\animal_pigeon01.jpg      	1	4	1	animal_pigeon01.jpg  	animals2 	1	pigeon    	28	pigeon01    	280	alive    	1	moves	1	natural 	1	n	0	0    	 	0.0	0	155.056185900001	155.156072099926	0.0998861999250948
133846	100	293	stimuli\nonmovArt\headphones\nma_headphones06.jpg	1	4	1	nma_headphones06.jpg 	nonmovArt	4	headphones	18	headphones06	185	not_alive	0	still	0	artefact	0	n	1	0    	 	0.0	0	155.20619099994698	155.306077899993	0.0998869000468403
133996	100	294	stimuli\nonmovNat\sand\nmn_sand05.jpg            	1	4	1	nmn_sand05.jpg       	nonmovNat	5	sand      	31	sand05      	314	not_alive	0	still	0	natural 	1	n	0	0    	 	0.0	0	155.356181899901	155.45608189993098	0.0999000000301748
134146	100	295	stimuli\movArt\train\ma_train03.jpg              	1	4	1	ma_train03.jpg       	movArt   	2	train     	34	train03     	342	not_alive	0	moves	1	artefact	0	n	0	1    	f	0.292108200024813	1	155.506177899893	155.60609599994498	0.0999181000515818
134296	100	296	stimuli\animals2\lemur\animal_lemur06.jpg        	1	4	1	animal_lemur06.jpg   	animals2 	1	lemur     	23	lemur06     	235	alive    	1	moves	1	natural 	1	n	0	0    	 	0.0	0	155.656189199886	155.756105899927	0.0999167000409215
134445	100	297	stimuli\nonmovNat\cliff\nmn_cliff01.jpg          	1	4	1	nmn_cliff01.jpg      	nonmovNat	5	cliff     	7	cliff01     	70	not_alive	0	still	0	natural 	1	n	0	0    	 	0.0	0	155.806153399986	155.90609809989098	0.0999446999048814
134596	100	298	stimuli\movNat\hotspring\mn_hotspring09.jpg      	1	4	1	mn_hotspring09.jpg   	movNat   	3	hotspring 	21	hotspring09 	218	not_alive	0	moves	1	natural 	1	n	0	0    	 	0.0	0	155.956220599939	156.056096599903	0.0998759999638423
134746	100	299	stimuli\nonmovArt\lock\nma_lock03.jpg            	1	4	1	nma_lock03.jpg       	nonmovArt	4	lock      	24	lock03      	242	not_alive	0	still	0	artefact	0	n	0	0    	 	0.0	0	156.10618639993498	156.206092299893	0.099905899958685
134896	100	300	stimuli\animals2\lemur\animal_lemur02.jpg        	1	4	1	animal_lemur02.jpg   	animals2 	1	lemur     	23	lemur02     	231	alive    	1	moves	1	natural 	1	n	1	0    	 	0.0	0	156.25619059999	156.356091199908	0.0999005999183282
135046	100	301	stimuli\nonmovArt\headphones\nma_headphones06.jpg	1	4	1	nma_headphones06.jpg 	nonmovArt	4	headphones	18	headphones06	185	not_alive	0	still	0	artefact	0	n	0	0    	 	0.0	0	156.40618359996	156.506076199934	0.0998925999738276
135196	100	302	stimuli\animals2\tiger\animal_tiger06.jpg        	1	4	1	animal_tiger06.jpg   	animals2 	1	tiger     	33	tiger06     	335	alive    	1	moves	1	natural 	1	n	0	0    	 	0.0	0	156.556165699963	156.656119699939	0.0999539999756962
135346	100	303	stimuli\plant2\fern\plant_fern08.jpg             	1	4	1	plant_fern08.jpg     	plant2   	7	fern      	14	fern08      	147	alive    	1	still	0	natural 	1	n	0	0    	 	0.0	0	156.706179599976	156.806084499927	0.0999048999510705
135496	100	304	stimuli\movNat\river\mn_river09.jpg              	1	4	1	mn_river09.jpg       	movNat   	3	river     	29	river09     	298	not_alive	0	moves	1	natural 	1	n	0	0    	 	0.0	0	156.856168099912	156.956100799958	0.0999327000463381
135646	100	305	stimuli\movArt\train\ma_train05.jpg              	1	4	1	ma_train05.jpg       	movArt   	2	train     	34	train05     	344	not_alive	0	moves	1	artefact	0	n	0	0    	 	0.0	0	157.006179199903	157.106093599927	0.0999144000234082
135796	100	306	stimuli\animals2\tiger\animal_tiger01.jpg        	1	4	1	animal_tiger01.jpg   	animals2 	1	tiger     	33	tiger01     	330	alive    	1	moves	1	natural 	1	n	0	0    	 	0.0	0	157.156177299912	157.256078199949	0.0999009000370279
135945	100	307	stimuli\animals2\whale\animal_whale08.jpg        	1	4	1	animal_whale08.jpg   	animals2 	1	whale     	39	whale08     	397	alive    	1	moves	1	natural 	1	n	0	0    	 	0.0	0	157.30615639989298	157.406080899993	0.0999245001003146
136095	100	308	stimuli\plant\cactus\plant_cactus10.jpg          	1	4	1	plant_cactus10.jpg   	plant    	6	cactus    	4	cactus10    	49	alive    	1	still	0	natural 	1	n	0	0    	 	0.0	0	157.4561521	157.55615129997	0.0999991999706253
136246	100	309	stimuli\animals\dog\animal_dog08.jpg             	1	4	1	animal_dog08.jpg     	animals  	0	dog       	11	dog08       	117	alive    	1	moves	1	natural 	1	n	0	0    	 	0.0	0	157.606181099894	157.706171699916	0.099990600021556
136396	100	310	stimuli\plant2\fern\plant_fern05.jpg             	1	4	1	plant_fern05.jpg     	plant2   	7	fern      	14	fern05      	144	alive    	1	still	0	natural 	1	n	0	0    	 	0.0	0	157.756263299962	157.856072099996	0.099808800034225
136546	100	311	stimuli\movNat\waves\mn_waves06.jpg              	1	4	1	mn_waves06.jpg       	movNat   	3	waves     	38	waves06     	385	not_alive	0	moves	1	natural 	1	n	0	0    	 	0.0	0	157.906171899987	158.006101899897	0.0999299999093636
136696	100	312	stimuli\movArt\car\ma_car06.jpg                  	1	4	1	ma_car06.jpg         	movArt   	2	car       	5	car06       	55	not_alive	0	moves	1	artefact	0	n	0	0    	 	0.0	0	158.056184899993	158.156086399918	0.0999014999251812
136846	100	313	stimuli\plant\flower\plant_flower03.jpg          	1	4	1	plant_flower03.jpg   	plant    	6	flower    	16	flower03    	162	alive    	1	still	0	natural 	1	n	0	0    	 	0.0	0	158.20616879989402	158.30606219998998	0.0998934000963345
136996	100	314	stimuli\plant2\palmtree\plant_palmtree07.jpg     	1	4	1	plant_palmtree07.jpg 	plant2   	7	palmtree  	27	palmtree07  	276	alive    	1	still	0	natural 	1	n	0	0    	 	0.0	0	158.356175299967	158.456065299921	0.0998899999540299
137146	100	315	stimuli\nonmovNat\shell\nmn_shell10.jpg          	1	4	1	nmn_shell10.jpg      	nonmovNat	5	shell     	32	shell10     	329	not_alive	0	still	0	natural 	1	n	0	0    	 	0.0	0	158.506160499994	158.606086499989	0.099925999995321
137296	100	316	stimuli\plant\tree\plant_tree10.jpg              	1	4	1	plant_tree10.jpg     	plant    	6	tree      	35	tree10      	359	alive    	1	still	0	natural 	1	n	0	0    	 	0.0	0	158.656166599947	158.75606439996	0.0998978000134229
137446	100	317	stimuli\plant\vine\plant_vine10.jpg              	1	4	1	plant_vine10.jpg     	plant    	6	vine      	36	vine10      	369	alive    	1	still	0	natural 	1	n	0	0    	 	0.0	0	158.806183899986	158.906096799998	0.0999129000119865
137596	100	318	stimuli\animals\eagle\animal_eagle03.jpg         	1	4	1	animal_eagle03.jpg   	animals  	0	eagle     	13	eagle03     	132	alive    	1	moves	1	natural 	1	n	0	0    	 	0.0	0	158.956150699989	159.05609629990101	0.0999455999117344
137746	100	319	stimuli\animals\cat\animal_cat07.jpg             	1	4	1	animal_cat07.jpg     	animals  	0	cat       	6	cat07       	66	alive    	1	moves	1	natural 	1	n	0	0    	 	0.0	0	159.10616039997	159.206088499981	0.0999281000113114
141479	100	320	stimuli\animals2\bee\animal_bee09.jpg            	1	5	1	animal_bee09.jpg     	animals2 	1	bee       	0	bee09       	8	alive    	1	moves	1	natural 	1	n	0	0    	 	0.0	0	162.839470599894	162.939381699893	0.0999110999982804
141629	100	321	stimuli\movArt\boat\ma_boat04.jpg                	1	5	1	ma_boat04.jpg        	movArt   	2	boat      	2	boat04      	23	not_alive	0	moves	1	artefact	0	n	0	0    	 	0.0	0	162.98947369994102	163.08937959989998	0.099905899958685
141779	100	322	stimuli\animals\dog\animal_dog07.jpg             	1	5	1	animal_dog07.jpg     	animals  	0	dog       	11	dog07       	116	alive    	1	moves	1	natural 	1	n	0	0    	 	0.0	0	163.13944449997499	163.239445499959	0.100000999984331
141929	100	323	stimuli\movNat\fire\mn_fire05.jpg                	1	5	1	mn_fire05.jpg        	movNat   	3	fire      	15	fire05      	154	not_alive	0	moves	1	natural 	1	n	0	0    	 	0.0	0	163.289539699908	163.38937519991302	0.0998355000047013
142079	100	324	stimuli\nonmovNat\crystal\nmn_crystal02.jpg      	1	5	1	nmn_crystal02.jpg    	nonmovNat	5	crystal   	10	crystal02   	101	not_alive	0	still	0	natural 	1	n	0	0    	 	0.0	0	163.439453499974	163.539344999939	0.0998914999654516
142229	100	325	stimuli\animals\cat\animal_cat10.jpg             	1	5	1	animal_cat10.jpg     	animals  	0	cat       	6	cat10       	69	alive    	1	moves	1	natural 	1	n	0	0    	 	0.0	0	163.589459599927	163.689358299947	0.09989870002027601
142379	100	326	stimuli\plant2\moss\plant_moss08.jpg             	1	5	1	plant_moss08.jpg     	plant2   	7	moss      	25	moss08      	257	alive    	1	still	0	natural 	1	n	0	0    	 	0.0	0	163.739461999969	163.839364999905	0.09990299993660301
142529	100	327	stimuli\nonmovArt\lock\nma_lock02.jpg            	1	5	1	nma_lock02.jpg       	nonmovArt	4	lock      	24	lock02      	241	not_alive	0	still	0	artefact	0	n	0	0    	 	0.0	0	163.889447099995	163.989365699934	0.0999185999389737
142679	100	328	stimuli\nonmovNat\cliff\nmn_cliff08.jpg          	1	5	1	nmn_cliff08.jpg      	nonmovNat	5	cliff     	7	cliff08     	77	not_alive	0	still	0	natural 	1	n	0	0    	 	0.0	0	164.039450499928	164.13935799989798	0.0999074999708682
142829	100	329	stimuli\movArt\boat\ma_boat04.jpg                	1	5	1	ma_boat04.jpg        	movArt   	2	boat      	2	boat04      	23	not_alive	0	moves	1	artefact	0	n	0	0    	 	0.0	0	164.189447199926	164.28933699999502	0.0998898000689223
142979	100	330	stimuli\movArt\bus\ma_bus10.jpg                  	1	5	1	ma_bus10.jpg         	movArt   	2	bus       	3	bus10       	39	not_alive	0	moves	1	artefact	0	n	0	0    	 	0.0	0	164.339433599962	164.43937029992202	0.0999366999603808
143129	100	331	stimuli\movNat\waves\mn_waves09.jpg              	1	5	1	mn_waves09.jpg       	movNat   	3	waves     	38	waves09     	388	not_alive	0	moves	1	natural 	1	n	0	0    	 	0.0	0	164.48943409998898	164.589353099931	0.0999189999420195
143279	100	332	stimuli\nonmovArt\mug\nma_mug05.jpg              	1	5	1	nma_mug05.jpg        	nonmovArt	4	mug       	26	mug05       	264	not_alive	0	still	0	artefact	0	n	0	0    	 	0.0	0	164.639438199927	164.73936939996202	0.0999312000349164
143429	100	333	stimuli\nonmovNat\sand\nmn_sand05.jpg            	1	5	1	nmn_sand05.jpg       	nonmovNat	5	sand      	31	sand05      	314	not_alive	0	still	0	natural 	1	n	1	0    	 	0.0	0	164.789450599928	164.88935319997802	0.0999026000499725
143579	100	334	stimuli\animals\dog\animal_dog02.jpg             	1	5	1	animal_dog02.jpg     	animals  	0	dog       	11	dog02       	111	alive    	1	moves	1	natural 	1	n	0	0    	 	0.0	0	164.93942239997	165.0394142	0.0999918000306934
143729	100	335	stimuli\plant2\lemontree\plant_lemontree01.jpg   	1	5	1	plant_lemontree01.jpg	plant2   	7	lemontree 	22	lemontree01 	220	alive    	1	still	0	natural 	1	n	0	1    	f	0.3919663999695329	1	165.089436899987	165.189456099994	0.1000192000065
143879	100	336	stimuli\movNat\hotspring\mn_hotspring07.jpg      	1	5	1	mn_hotspring07.jpg   	movNat   	3	hotspring 	21	hotspring07 	216	not_alive	0	moves	1	natural 	1	n	0	0    	 	0.0	0	165.23943119996702	165.33934509998699	0.099913900019601
144029	100	337	stimuli\nonmovNat\shell\nmn_shell07.jpg          	1	5	1	nmn_shell07.jpg      	nonmovNat	5	shell     	32	shell07     	326	not_alive	0	still	0	natural 	1	n	0	0    	 	0.0	0	165.38943599991	165.489346499904	0.0999104999937117
144179	100	338	stimuli\plant2\clover\plant_clover07.jpg         	1	5	1	plant_clover07.jpg   	plant2   	7	clover    	9	clover07    	96	alive    	1	still	0	natural 	1	n	0	0    	 	0.0	0	165.539433399914	165.63935469998998	0.0999213000759482
144329	100	339	stimuli\movArt\helicopter\ma_helicopter01.jpg    	1	5	1	ma_helicopter01.jpg  	movArt   	2	helicopter	19	helicopter01	190	not_alive	0	moves	1	artefact	0	n	0	0    	 	0.0	0	165.68942869990101	165.789362599957	0.0999339000554755
144479	100	340	stimuli\plant\flower\plant_flower10.jpg          	1	5	1	plant_flower10.jpg   	plant    	6	flower    	16	flower10    	169	alive    	1	still	0	natural 	1	n	0	0    	 	0.0	0	165.83943439996798	165.93934089993098	0.0999064999632537
144629	100	341	stimuli\animals\cat\animal_cat05.jpg             	1	5	1	animal_cat05.jpg     	animals  	0	cat       	6	cat05       	64	alive    	1	moves	1	natural 	1	n	0	0    	 	0.0	0	165.989425199921	166.08934169996098	0.0999165000393986
144779	100	342	stimuli\movArt\helicopter\ma_helicopter10.jpg    	1	5	1	ma_helicopter10.jpg  	movArt   	2	helicopter	19	helicopter10	199	not_alive	0	moves	1	artefact	0	n	0	0    	 	0.0	0	166.13943379989402	166.239346799906	0.0999130000127479
144929	100	343	stimuli\plant\vine\plant_vine09.jpg              	1	5	1	plant_vine09.jpg     	plant    	6	vine      	36	vine09      	368	alive    	1	still	0	natural 	1	n	0	0    	 	0.0	0	166.28942409995898	166.389346299926	0.0999221999663859
145079	100	344	stimuli\nonmovArt\headphones\nma_headphones05.jpg	1	5	1	nma_headphones05.jpg 	nonmovArt	4	headphones	18	headphones05	184	not_alive	0	still	0	artefact	0	n	0	0    	 	0.0	0	166.439425499993	166.539347099955	0.0999215999618172
145229	100	345	stimuli\nonmovNat\rock\nmn_rock07.jpg            	1	5	1	nmn_rock07.jpg       	nonmovNat	5	rock      	30	rock07      	306	not_alive	0	still	0	natural 	1	n	0	0    	 	0.0	0	166.589427699917	166.689345399966	0.09991770004853599
145379	100	346	stimuli\movNat\waterfall\mn_waterfall08.jpg      	1	5	1	mn_waterfall08.jpg   	movNat   	3	waterfall 	37	waterfall08 	377	not_alive	0	moves	1	natural 	1	n	0	0    	 	0.0	0	166.73942949995399	166.83941799996	0.0999885000055655
145529	100	347	stimuli\plant\flower\plant_flower07.jpg          	1	5	1	plant_flower07.jpg   	plant    	6	flower    	16	flower07    	166	alive    	1	still	0	natural 	1	n	0	0    	 	0.0	0	166.88943389989402	166.989344499889	0.0999105999944731
145679	100	348	stimuli\animals\dolphin\animal_dolphin01.jpg     	1	5	1	animal_dolphin01.jpg 	animals  	0	dolphin   	12	dolphin01   	120	alive    	1	moves	1	natural 	1	n	0	0    	 	0.0	0	167.039420699934	167.139359399909	0.0999386999756097
145829	100	349	stimuli\plant2\lemontree\plant_lemontree05.jpg   	1	5	1	plant_lemontree05.jpg	plant2   	7	lemontree 	22	lemontree05 	224	alive    	1	still	0	natural 	1	n	0	0    	 	0.0	0	167.189425699995	167.289333099965	0.0999073999701067
145979	100	350	stimuli\animals2\whale\animal_whale03.jpg        	1	5	1	animal_whale03.jpg   	animals2 	1	whale     	39	whale03     	392	alive    	1	moves	1	natural 	1	n	0	0    	 	0.0	0	167.339418999967	167.439333799994	0.09991480002645402
146129	100	351	stimuli\movArt\bus\ma_bus05.jpg                  	1	5	1	ma_bus05.jpg         	movArt   	2	bus       	3	bus05       	34	not_alive	0	moves	1	artefact	0	n	0	0    	 	0.0	0	167.48941419995398	167.589336999925	0.0999227999709546
146279	100	352	stimuli\plant\cactus\plant_cactus08.jpg          	1	5	1	plant_cactus08.jpg   	plant    	6	cactus    	4	cactus08    	47	alive    	1	still	0	natural 	1	n	0	0    	 	0.0	0	167.639423799934	167.739335599937	0.0999118000036105
146429	100	353	stimuli\plant\grass\plant_grass08.jpg            	1	5	1	plant_grass08.jpg    	plant    	6	grass     	17	grass08     	177	alive    	1	still	0	natural 	1	n	0	0    	 	0.0	0	167.789405399933	167.889323199983	0.0999178000492975
146579	100	354	stimuli\animals2\pigeon\animal_pigeon05.jpg      	1	5	1	animal_pigeon05.jpg  	animals2 	1	pigeon    	28	pigeon05    	284	alive    	1	moves	1	natural 	1	n	0	0    	 	0.0	0	167.939422099967	168.039347599959	0.0999254999915138
146729	100	355	stimuli\animals2\bee\animal_bee02.jpg            	1	5	1	animal_bee02.jpg     	animals2 	1	bee       	0	bee02       	1	alive    	1	moves	1	natural 	1	n	0	0    	 	0.0	0	168.08944169990698	168.189315799973	0.0998741000657901
146879	100	356	stimuli\plant\tree\plant_tree09.jpg              	1	5	1	plant_tree09.jpg     	plant    	6	tree      	35	tree09      	358	alive    	1	still	0	natural 	1	n	0	0    	 	0.0	0	168.239422199898	168.339315699995	0.0998935000970959
147029	100	357	stimuli\animals\horse\animal_horse06.jpg         	1	5	1	animal_horse06.jpg   	animals  	0	horse     	20	horse06     	205	alive    	1	moves	1	natural 	1	n	0	0    	 	0.0	0	168.389410899952	168.489325299975	0.0999144000234082
147179	100	358	stimuli\movArt\helicopter\ma_helicopter07.jpg    	1	5	1	ma_helicopter07.jpg  	movArt   	2	helicopter	19	helicopter07	196	not_alive	0	moves	1	artefact	0	n	0	0    	 	0.0	0	168.539435699931	168.639339199988	0.0999035000568255
147329	100	359	stimuli\plant2\palmtree\plant_palmtree01.jpg     	1	5	1	plant_palmtree01.jpg 	plant2   	7	palmtree  	27	palmtree01  	270	alive    	1	still	0	natural 	1	n	0	0    	 	0.0	0	168.68942979991002	168.78931319993	0.0998834000201895
147479	100	360	stimuli\animals2\whale\animal_whale01.jpg        	1	5	1	animal_whale01.jpg   	animals2 	1	whale     	39	whale01     	390	alive    	1	moves	1	natural 	1	n	0	0    	 	0.0	0	168.839404599974	168.93932129989798	0.0999166999245062
147629	100	361	stimuli\nonmovArt\mug\nma_mug06.jpg              	1	5	1	nma_mug06.jpg        	nonmovArt	4	mug       	26	mug06       	265	not_alive	0	still	0	artefact	0	n	0	0    	 	0.0	0	168.989400699968	169.08932499995	0.0999242999823764
147779	100	362	stimuli\movArt\boat\ma_boat05.jpg                	1	5	1	ma_boat05.jpg        	movArt   	2	boat      	2	boat05      	24	not_alive	0	moves	1	artefact	0	n	0	0    	 	0.0	0	169.139409399941	169.239318499924	0.0999090999830514
147929	100	363	stimuli\movArt\boat\ma_boat09.jpg                	1	5	1	ma_boat09.jpg        	movArt   	2	boat      	2	boat09      	28	not_alive	0	moves	1	artefact	0	n	0	0    	 	0.0	0	169.289409799967	169.389316499932	0.0999066999647766
148079	100	364	stimuli\movArt\car\ma_car06.jpg                  	1	5	1	ma_car06.jpg         	movArt   	2	car       	5	car06       	55	not_alive	0	moves	1	artefact	0	n	0	0    	 	0.0	0	169.439406899968	169.539312399924	0.0999054999556392
148229	100	365	stimuli\plant\grass\plant_grass04.jpg            	1	5	1	plant_grass04.jpg    	plant    	6	grass     	17	grass04     	173	alive    	1	still	0	natural 	1	n	0	0    	 	0.0	0	169.589406899991	169.689317499986	0.0999105999944731
148379	100	366	stimuli\plant\vine\plant_vine04.jpg              	1	5	1	plant_vine04.jpg     	plant    	6	vine      	36	vine04      	363	alive    	1	still	0	natural 	1	n	0	0    	 	0.0	0	169.739396999939	169.839312999975	0.0999160000355914
148529	100	367	stimuli\plant\tree\plant_tree08.jpg              	1	5	1	plant_tree08.jpg     	plant    	6	tree      	35	tree08      	357	alive    	1	still	0	natural 	1	n	0	0    	 	0.0	0	169.88938209996599	169.989322199952	0.09994009998627
148679	100	368	stimuli\movNat\river\mn_river02.jpg              	1	5	1	mn_river02.jpg       	movNat   	3	river     	29	river02     	291	not_alive	0	moves	1	natural 	1	n	1	0    	 	0.0	0	170.039388099918	170.139334399952	0.0999463000334799
148829	100	369	stimuli\movNat\fire\mn_fire09.jpg                	1	5	1	mn_fire09.jpg        	movNat   	3	fire      	15	fire09      	158	not_alive	0	moves	1	natural 	1	n	0	0    	 	0.0	0	170.189396099886	170.289322500001	0.0999264001147821
148979	100	370	stimuli\nonmovArt\lock\nma_lock03.jpg            	1	5	1	nma_lock03.jpg       	nonmovArt	4	lock      	24	lock03      	242	not_alive	0	still	0	artefact	0	n	0	1    	f	0.30184670002199704	1	170.33944819995702	170.439313699957	0.0998655000003054
149129	100	371	stimuli\plant2\moss\plant_moss03.jpg             	1	5	1	plant_moss03.jpg     	plant2   	7	moss      	25	moss03      	252	alive    	1	still	0	natural 	1	n	0	0    	 	0.0	0	170.489398299949	170.58931099996	0.0999127000104636
149279	100	372	stimuli\nonmovNat\sand\nmn_sand06.jpg            	1	5	1	nmn_sand06.jpg       	nonmovNat	5	sand      	31	sand06      	315	not_alive	0	still	0	natural 	1	n	0	0    	 	0.0	0	170.639397099963	170.739308099961	0.0999109999975189
149429	100	373	stimuli\plant2\moss\plant_moss09.jpg             	1	5	1	plant_moss09.jpg     	plant2   	7	moss      	25	moss09      	258	alive    	1	still	0	natural 	1	n	0	0    	 	0.0	0	170.78938699991002	170.889303499949	0.0999165000393986
149579	100	374	stimuli\nonmovArt\headphones\nma_headphones03.jpg	1	5	1	nma_headphones03.jpg 	nonmovArt	4	headphones	18	headphones03	182	not_alive	0	still	0	artefact	0	n	0	0    	 	0.0	0	170.939381499891	171.039302899968	0.0999214000767096
149729	100	375	stimuli\animals2\tiger\animal_tiger02.jpg        	1	5	1	animal_tiger02.jpg   	animals2 	1	tiger     	33	tiger02     	331	alive    	1	moves	1	natural 	1	n	0	0    	 	0.0	0	171.089397899923	171.189293999923	0.0998961000004783
149879	100	376	stimuli\nonmovArt\mug\nma_mug09.jpg              	1	5	1	nma_mug09.jpg        	nonmovArt	4	mug       	26	mug09       	268	not_alive	0	still	0	artefact	0	n	0	0    	 	0.0	0	171.239379999926	171.33929999999202	0.0999200000660494
150029	100	377	stimuli\movArt\train\ma_train06.jpg              	1	5	1	ma_train06.jpg       	movArt   	2	train     	34	train06     	345	not_alive	0	moves	1	artefact	0	n	0	0    	 	0.0	0	171.389388399897	171.489299799898	0.0999114000005647
150179	100	378	stimuli\animals2\lemur\animal_lemur01.jpg        	1	5	1	animal_lemur01.jpg   	animals2 	1	lemur     	23	lemur01     	230	alive    	1	moves	1	natural 	1	n	0	0    	 	0.0	0	171.539380399976	171.63928539992799	0.0999049999518319
150329	100	379	stimuli\plant\cactus\plant_cactus04.jpg          	1	5	1	plant_cactus04.jpg   	plant    	6	cactus    	4	cactus04    	43	alive    	1	still	0	natural 	1	n	0	0    	 	0.0	0	171.68939219997299	171.78931169991802	0.0999194999458268
150479	100	380	stimuli\plant2\palmtree\plant_palmtree10.jpg     	1	5	1	plant_palmtree10.jpg 	plant2   	7	palmtree  	27	palmtree10  	279	alive    	1	still	0	natural 	1	n	0	0    	 	0.0	0	171.839384999941	171.93928129994302	0.0998963000020012
150629	100	381	stimuli\plant2\clover\plant_clover10.jpg         	1	5	1	plant_clover10.jpg   	plant2   	7	clover    	9	clover10    	99	alive    	1	still	0	natural 	1	n	0	0    	 	0.0	0	171.989368999959	172.08932069991698	0.0999516999581828
150779	100	382	stimuli\animals\dog\animal_dog09.jpg             	1	5	1	animal_dog09.jpg     	animals  	0	dog       	11	dog09       	118	alive    	1	moves	1	natural 	1	n	0	0    	 	0.0	0	172.13945859996602	172.239297299995	0.0998387000290677
150929	100	383	stimuli\movNat\river\mn_river08.jpg              	1	5	1	mn_river08.jpg       	movNat   	3	river     	29	river08     	297	not_alive	0	moves	1	natural 	1	n	0	0    	 	0.0	0	172.289369599894	172.389285599929	0.0999160000355914
151079	100	384	stimuli\animals2\bee\animal_bee01.jpg            	1	5	1	animal_bee01.jpg     	animals2 	1	bee       	0	bee01       	0	alive    	1	moves	1	natural 	1	n	0	0    	 	0.0	0	172.43938159989202	172.53928539995098	0.0999038000591099
151229	100	385	stimuli\movNat\fire\mn_fire10.jpg                	1	5	1	mn_fire10.jpg        	movNat   	3	fire      	15	fire10      	159	not_alive	0	moves	1	natural 	1	n	0	0    	 	0.0	0	172.589378099889	172.68930359999598	0.0999255001079291
151379	100	386	stimuli\movNat\hotspring\mn_hotspring10.jpg      	1	5	1	mn_hotspring10.jpg   	movNat   	3	hotspring 	21	hotspring10 	219	not_alive	0	moves	1	natural 	1	n	0	0    	 	0.0	0	172.739386699977	172.839300299995	0.0999136000173166
151529	100	387	stimuli\movArt\bus\ma_bus01.jpg                  	1	5	1	ma_bus01.jpg         	movArt   	2	bus       	3	bus01       	30	not_alive	0	moves	1	artefact	0	n	0	0    	 	0.0	0	172.889381599962	172.98930679995098	0.0999251999892294
151679	100	388	stimuli\nonmovArt\mug\nma_mug10.jpg              	1	5	1	nma_mug10.jpg        	nonmovArt	4	mug       	26	mug10       	269	not_alive	0	still	0	artefact	0	n	0	0    	 	0.0	0	173.039383700001	173.139283699915	0.0998999999137595
151829	100	389	stimuli\movNat\waves\mn_waves10.jpg              	1	5	1	mn_waves10.jpg       	movNat   	3	waves     	38	waves10     	389	not_alive	0	moves	1	natural 	1	n	0	0    	 	0.0	0	173.189373499947	173.28929289989202	0.0999193999450653
151979	100	390	stimuli\animals2\pigeon\animal_pigeon10.jpg      	1	5	1	animal_pigeon10.jpg  	animals2 	1	pigeon    	28	pigeon10    	289	alive    	1	moves	1	natural 	1	n	0	0    	 	0.0	0	173.33936210000002	173.439284899971	0.0999227999709546
152129	100	391	stimuli\animals\dolphin\animal_dolphin04.jpg     	1	5	1	animal_dolphin04.jpg 	animals  	0	dolphin   	12	dolphin04   	123	alive    	1	moves	1	natural 	1	n	0	0    	 	0.0	0	173.48938069993198	173.589303499903	0.0999227999709546
152279	100	392	stimuli\plant2\lemontree\plant_lemontree04.jpg   	1	5	1	plant_lemontree04.jpg	plant2   	7	lemontree 	22	lemontree04 	223	alive    	1	still	0	natural 	1	n	0	0    	 	0.0	0	173.63936559995602	173.73928909993302	0.0999234999762848
152429	100	393	stimuli\plant2\palmtree\plant_palmtree01.jpg     	1	5	1	plant_palmtree01.jpg 	plant2   	7	palmtree  	27	palmtree01  	270	alive    	1	still	0	natural 	1	n	0	0    	 	0.0	0	173.789367799996	173.88931909995202	0.099951299955137
152579	100	394	stimuli\plant2\palmtree\plant_palmtree07.jpg     	1	5	1	plant_palmtree07.jpg 	plant2   	7	palmtree  	27	palmtree07  	276	alive    	1	still	0	natural 	1	n	0	0    	 	0.0	0	173.93946889997503	174.039284299943	0.0998153999680653
152729	100	395	stimuli\plant\vine\plant_vine06.jpg              	1	5	1	plant_vine06.jpg     	plant    	6	vine      	36	vine06      	365	alive    	1	still	0	natural 	1	n	0	0    	 	0.0	0	174.089286399889	174.189322499908	0.10003610001877
152879	100	396	stimuli\plant2\moss\plant_moss06.jpg             	1	5	1	plant_moss06.jpg     	plant2   	7	moss      	25	moss06      	255	alive    	1	still	0	natural 	1	n	0	0    	 	0.0	0	174.239389899885	174.339321599924	0.0999317000387236
153029	100	397	stimuli\plant\grass\plant_grass05.jpg            	1	5	1	plant_grass05.jpg    	plant    	6	grass     	17	grass05     	174	alive    	1	still	0	natural 	1	n	0	0    	 	0.0	0	174.38937269989398	174.489283899893	0.0999111999990418
153179	100	398	stimuli\nonmovNat\crystal\nmn_crystal04.jpg      	1	5	1	nmn_crystal04.jpg    	nonmovNat	5	crystal   	10	crystal04   	103	not_alive	0	still	0	natural 	1	n	0	0    	 	0.0	0	174.539362699958	174.639284499921	0.0999217999633401
153329	100	399	stimuli\nonmovNat\shell\nmn_shell06.jpg          	1	5	1	nmn_shell06.jpg      	nonmovNat	5	shell     	32	shell06     	325	not_alive	0	still	0	natural 	1	n	0	0    	 	0.0	0	174.689371899934	174.789273999981	0.0999021000461652
161695	100	400	stimuli\animals\horse\animal_horse02.jpg         	1	6	1	animal_horse02.jpg   	animals  	0	horse     	20	horse02     	201	alive    	1	moves	1	natural 	1	n	0	0    	 	0.0	0	183.05509759998	183.155079999939	0.0999823999591171
161845	100	401	stimuli\movArt\car\ma_car04.jpg                  	1	6	1	ma_car04.jpg         	movArt   	2	car       	5	car04       	53	not_alive	0	moves	1	artefact	0	n	0	0    	 	0.0	0	183.20509029994702	183.30507919995603	0.0999889000086113
161995	100	402	stimuli\animals2\pigeon\animal_pigeon03.jpg      	1	6	1	animal_pigeon03.jpg  	animals2 	1	pigeon    	28	pigeon03    	282	alive    	1	moves	1	natural 	1	n	0	0    	 	0.0	0	183.355089299963	183.45507979998402	0.0999905000207945
162145	100	403	stimuli\movArt\bus\ma_bus01.jpg                  	1	6	1	ma_bus01.jpg         	movArt   	2	bus       	3	bus01       	30	not_alive	0	moves	1	artefact	0	n	0	0    	 	0.0	0	183.50508529995602	183.605077799992	0.0999925000360235
162295	100	404	stimuli\nonmovArt\bench\nma_bench06.jpg          	1	6	1	nma_bench06.jpg      	nonmovArt	4	bench     	1	bench06     	15	not_alive	0	still	0	artefact	0	n	0	0    	 	0.0	0	183.65508549998	183.755074899993	0.0999894000124186
162445	100	405	stimuli\animals2\lemur\animal_lemur06.jpg        	1	6	1	animal_lemur06.jpg   	animals2 	1	lemur     	23	lemur06     	235	alive    	1	moves	1	natural 	1	n	0	0    	 	0.0	0	183.80508529988603	183.905076999916	0.0999917000299319
162595	100	406	stimuli\plant2\lemontree\plant_lemontree02.jpg   	1	6	1	plant_lemontree02.jpg	plant2   	7	lemontree 	22	lemontree02 	221	alive    	1	still	0	natural 	1	n	0	0    	 	0.0	0	183.955107599963	184.055073599913	0.0999659999506548
162745	100	407	stimuli\animals2\pigeon\animal_pigeon03.jpg      	1	6	1	animal_pigeon03.jpg  	animals2 	1	pigeon    	28	pigeon03    	282	alive    	1	moves	1	natural 	1	n	0	0    	 	0.0	0	184.10508239991	184.205072199926	0.0999898000154644
162895	100	408	stimuli\nonmovArt\headphones\nma_headphones03.jpg	1	6	1	nma_headphones03.jpg 	nonmovArt	4	headphones	18	headphones03	182	not_alive	0	still	0	artefact	0	n	0	0    	 	0.0	0	184.255079399911	184.355071099941	0.0999917000299319
163045	100	409	stimuli\movNat\waterfall\mn_waterfall03.jpg      	1	6	1	mn_waterfall03.jpg   	movNat   	3	waterfall 	37	waterfall03 	372	not_alive	0	moves	1	natural 	1	n	0	0    	 	0.0	0	184.40507889993	184.505068499944	0.0999896000139415
163195	100	410	stimuli\nonmovArt\lock\nma_lock04.jpg            	1	6	1	nma_lock04.jpg       	nonmovArt	4	lock      	24	lock04      	243	not_alive	0	still	0	artefact	0	n	0	0    	 	0.0	0	184.555076199933	184.65507259999902	0.09999640006572001
163345	100	411	stimuli\nonmovArt\bench\nma_bench07.jpg          	1	6	1	nma_bench07.jpg      	nonmovArt	4	bench     	1	bench07     	16	not_alive	0	still	0	artefact	0	n	0	0    	 	0.0	0	184.705080399988	184.805069499998	0.0999891000101342
163495	100	412	stimuli\animals\horse\animal_horse03.jpg         	1	6	1	animal_horse03.jpg   	animals  	0	horse     	20	horse03     	202	alive    	1	moves	1	natural 	1	n	0	0    	 	0.0	0	184.855072199949	184.955064999987	0.0999928000383079
163645	100	413	stimuli\plant\flower\plant_flower05.jpg          	1	6	1	plant_flower05.jpg   	plant    	6	flower    	16	flower05    	164	alive    	1	still	0	natural 	1	n	0	0    	 	0.0	0	185.00507359998298	185.10506439988998	0.0999907999066636
163795	100	414	stimuli\movArt\train\ma_train04.jpg              	1	6	1	ma_train04.jpg       	movArt   	2	train     	34	train04     	343	not_alive	0	moves	1	artefact	0	n	0	0    	 	0.0	0	185.155072099995	185.25506129988898	0.0999891998944804
163945	100	415	stimuli\nonmovNat\sand\nmn_sand06.jpg            	1	6	1	nmn_sand06.jpg       	nonmovNat	5	sand      	31	sand06      	315	not_alive	0	still	0	natural 	1	n	0	0    	 	0.0	0	185.305073999916	185.405061599915	0.0999875999987125
164095	100	416	stimuli\animals\dolphin\animal_dolphin09.jpg     	1	6	1	animal_dolphin09.jpg 	animals  	0	dolphin   	12	dolphin09   	128	alive    	1	moves	1	natural 	1	n	0	0    	 	0.0	0	185.45507069991402	185.55506339995202	0.0999927000375464
164245	100	417	stimuli\animals\eagle\animal_eagle03.jpg         	1	6	1	animal_eagle03.jpg   	animals  	0	eagle     	13	eagle03     	132	alive    	1	moves	1	natural 	1	n	0	0    	 	0.0	0	185.60506399988702	185.70505969994701	0.0999957000603899
