onset	duration	eventnumber	stimulus_file	blockno	trialno	is_faststream	stim	stim_category	category_number	exemplar	exemplar_number	image_name	image_number	aliveness	aliveness_bin	movement	movement_bin	naturalness	naturalness_bin	response_hand_moves	istarget	response	keypressed	rt	correct	time_stimon	time_stimoff	stimdur
53118	100	0	stimuli\nonmovArt\mug\nma_mug05.jpg              	1	1	1	nma_mug05.jpg        	nonmovArt	4	mug       	26	mug05       	264	not_alive	0	still	0	artefact	0	n	0	0    	 	0.0	0	70.911246099975	71.011127699865	0.0998815998900681
53268	100	1	stimuli\plant2\fern\plant_fern07.jpg             	1	1	1	plant_fern07.jpg     	plant2   	7	fern      	14	fern07      	146	alive    	1	still	0	natural 	1	n	0	0    	 	0.0	0	71.06114819995129	71.161154899979	0.100006700027734
53418	100	2	stimuli\animals2\pigeon\animal_pigeon06.jpg      	1	1	1	animal_pigeon06.jpg  	animals2 	1	pigeon    	28	pigeon06    	285	alive    	1	moves	1	natural 	1	n	0	0    	 	0.0	0	71.2112254998647	71.311128199799	0.0999026999343186
53568	100	3	stimuli\animals2\bee\animal_bee03.jpg            	1	1	1	animal_bee03.jpg     	animals2 	1	bee       	0	bee03       	2	alive    	1	moves	1	natural 	1	n	0	0    	 	0.0	0	71.361223799875	71.46111509995531	0.09989130008034401
53718	100	4	stimuli\nonmovArt\mug\nma_mug03.jpg              	1	1	1	nma_mug03.jpg        	nonmovArt	4	mug       	26	mug03       	262	not_alive	0	still	0	artefact	0	n	0	0    	 	0.0	0	71.511214699829	71.6111170998774	0.0999024000484496
53868	100	5	stimuli\animals\eagle\animal_eagle06.jpg         	1	1	1	animal_eagle06.jpg   	animals  	0	eagle     	13	eagle06     	135	alive    	1	moves	1	natural 	1	n	0	0    	 	0.0	0	71.66121999989271	71.7611076999456	0.0998877000529319
54018	100	6	stimuli\plant\flower\plant_flower10.jpg          	1	1	1	plant_flower10.jpg   	plant    	6	flower    	16	flower10    	169	alive    	1	still	0	natural 	1	n	0	0    	 	0.0	0	71.8112158998847	71.91110759996809	0.0998917000833898
54168	100	7	stimuli\nonmovArt\bench\nma_bench03.jpg          	1	1	1	nma_bench03.jpg      	nonmovArt	4	bench     	1	bench03     	12	not_alive	0	still	0	artefact	0	n	0	0    	 	0.0	0	71.9612112999894	72.06111429980959	0.0999029998201876
54319	100	8	stimuli\plant2\lemontree\plant_lemontree09.jpg   	1	1	1	plant_lemontree09.jpg	plant2   	7	lemontree 	22	lemontree09 	228	alive    	1	still	0	natural 	1	n	0	0    	 	0.0	0	72.1116929999553	72.2111245999113	0.0994315999560058
54468	100	9	stimuli\movNat\fire\mn_fire09.jpg                	1	1	1	mn_fire09.jpg        	movNat   	3	fire      	15	fire09      	158	not_alive	0	moves	1	natural 	1	n	0	0    	 	0.0	0	72.26125159999359	72.3611383999232	0.0998867999296635
54618	100	10	stimuli\plant\tree\plant_tree03.jpg              	1	1	1	plant_tree03.jpg     	plant    	6	tree      	35	tree03      	352	alive    	1	still	0	natural 	1	n	0	0    	 	0.0	0	72.4112238998059	72.5111358999275	0.0999120001215487
54768	100	11	stimuli\animals2\bee\animal_bee01.jpg            	1	1	1	animal_bee01.jpg     	animals2 	1	bee       	0	bee01       	0	alive    	1	moves	1	natural 	1	n	0	0    	 	0.0	0	72.5612097999547	72.66112209996209	0.0999123000074178
54918	100	12	stimuli\movNat\hotspring\mn_hotspring10.jpg      	1	1	1	mn_hotspring10.jpg   	movNat   	3	hotspring 	21	hotspring10 	219	not_alive	0	moves	1	natural 	1	n	0	0    	 	0.0	0	72.71132789994591	72.81115789990871	0.0998299999628216
55068	100	13	stimuli\animals\horse\animal_horse01.jpg         	1	1	1	animal_horse01.jpg   	animals  	0	horse     	20	horse01     	200	alive    	1	moves	1	natural 	1	n	0	0    	 	0.0	0	72.8612200999632	72.9610982998274	0.0998781998641789
55218	100	14	stimuli\plant\vine\plant_vine03.jpg              	1	1	1	plant_vine03.jpg     	plant    	6	vine      	36	vine03      	362	alive    	1	still	0	natural 	1	n	0	0    	 	0.0	0	73.01122919982299	73.11112439981659	0.0998951999936252
55368	100	15	stimuli\plant2\clover\plant_clover09.jpg         	1	1	1	plant_clover09.jpg   	plant2   	7	clover    	9	clover09    	98	alive    	1	still	0	natural 	1	n	0	0    	 	0.0	0	73.1612118999474	73.2611211999319	0.0999092999845743
55518	100	16	stimuli\nonmovNat\shell\nmn_shell06.jpg          	1	1	1	nmn_shell06.jpg      	nonmovNat	5	shell     	32	shell06     	325	not_alive	0	still	0	natural 	1	n	0	0    	 	0.0	0	73.31121949991208	73.4110875998158	0.0998680999036878
55668	100	17	stimuli\nonmovNat\crystal\nmn_crystal10.jpg      	1	1	1	nmn_crystal10.jpg    	nonmovNat	5	crystal   	10	crystal10   	109	not_alive	0	still	0	natural 	1	n	0	0    	 	0.0	0	73.46120339981279	73.56112409988421	0.0999207000713795
55818	100	18	stimuli\plant2\lemontree\plant_lemontree09.jpg   	1	1	1	plant_lemontree09.jpg	plant2   	7	lemontree 	22	lemontree09 	228	alive    	1	still	0	natural 	1	n	0	0    	 	0.0	0	73.611221899977	73.71111869998279	0.0998968000058084
55968	100	19	stimuli\plant\grass\plant_grass01.jpg            	1	1	1	plant_grass01.jpg    	plant    	6	grass     	17	grass01     	170	alive    	1	still	0	natural 	1	n	0	0    	 	0.0	0	73.76118059991859	73.861116199987	0.0999356000684201
56118	100	20	stimuli\nonmovArt\headphones\nma_headphones02.jpg	1	1	1	nma_headphones02.jpg 	nonmovArt	4	headphones	18	headphones02	181	not_alive	0	still	0	artefact	0	n	0	0    	 	0.0	0	73.91123480000529	74.0110867999028	0.0998519998975098
56268	100	21	stimuli\movNat\waves\mn_waves07.jpg              	1	1	1	mn_waves07.jpg       	movNat   	3	waves     	38	waves07     	386	not_alive	0	moves	1	natural 	1	n	0	0    	 	0.0	0	74.0611771999393	74.1610944999848	0.0999173000454902
56418	100	22	stimuli\animals\eagle\animal_eagle03.jpg         	1	1	1	animal_eagle03.jpg   	animals  	0	eagle     	13	eagle03     	132	alive    	1	moves	1	natural 	1	n	0	0    	 	0.0	0	74.21119489986451	74.31109609990379	0.0999012000393122
56568	100	23	stimuli\animals2\pigeon\animal_pigeon01.jpg      	1	1	1	animal_pigeon01.jpg  	animals2 	1	pigeon    	28	pigeon01    	280	alive    	1	moves	1	natural 	1	n	0	0    	 	0.0	0	74.3611924999859	74.4611504999921	0.0999580000061541
56718	100	24	stimuli\plant\cactus\plant_cactus09.jpg          	1	1	1	plant_cactus09.jpg   	plant    	6	cactus    	4	cactus09    	48	alive    	1	still	0	natural 	1	n	0	0    	 	0.0	0	74.5112937998492	74.6110865999945	0.0997928001452237
56868	100	25	stimuli\animals2\lemur\animal_lemur05.jpg        	1	1	1	animal_lemur05.jpg   	animals2 	1	lemur     	23	lemur05     	234	alive    	1	moves	1	natural 	1	n	0	0    	 	0.0	0	74.6611893998925	74.7610793998465	0.0998899999540299
57018	100	26	stimuli\movArt\car\ma_car04.jpg                  	1	1	1	ma_car04.jpg         	movArt   	2	car       	5	car04       	53	not_alive	0	moves	1	artefact	0	n	0	0    	 	0.0	0	74.811180899851	74.911083499901	0.0999026000499725
57168	100	27	stimuli\animals2\tiger\animal_tiger08.jpg        	1	1	1	animal_tiger08.jpg   	animals2 	1	tiger     	33	tiger08     	337	alive    	1	moves	1	natural 	1	n	0	0    	 	0.0	0	74.9611823000014	75.0610805999022	0.0998982999008148
57318	100	28	stimuli\nonmovArt\clothespeg\nma_clothespeg09.jpg	1	1	1	nma_clothespeg09.jpg 	nonmovArt	4	clothespeg	8	clothespeg09	88	not_alive	0	still	0	artefact	0	n	0	0    	 	0.0	0	75.1111847998109	75.21109509980309	0.0999102999921888
57468	100	29	stimuli\plant2\clover\plant_clover05.jpg         	1	1	1	plant_clover05.jpg   	plant2   	7	clover    	9	clover05    	94	alive    	1	still	0	natural 	1	n	0	0    	 	0.0	0	75.2611977998167	75.3610911997967	0.0998933999799192
57618	100	30	stimuli\plant2\palmtree\plant_palmtree06.jpg     	1	1	1	plant_palmtree06.jpg 	plant2   	7	palmtree  	27	palmtree06  	275	alive    	1	still	0	natural 	1	n	0	0    	 	0.0	0	75.41120939981191	75.51110599981621	0.0998966000042855
57768	100	31	stimuli\plant2\moss\plant_moss10.jpg             	1	1	1	plant_moss10.jpg     	plant2   	7	moss      	25	moss10      	259	alive    	1	still	0	natural 	1	n	0	0    	 	0.0	0	75.5611681998707	75.6610755999573	0.0999074000865221
57918	100	32	stimuli\plant\flower\plant_flower01.jpg          	1	1	1	plant_flower01.jpg   	plant    	6	flower    	16	flower01    	160	alive    	1	still	0	natural 	1	n	0	0    	 	0.0	0	75.7112083998509	75.81109029985959	0.0998819000087678
58068	100	33	stimuli\plant2\clover\plant_clover01.jpg         	1	1	1	plant_clover01.jpg   	plant2   	7	clover    	9	clover01    	90	alive    	1	still	0	natural 	1	n	0	0    	 	0.0	0	75.8611900999676	75.9610903998837	0.0999002999160438
58218	100	34	stimuli\animals2\tiger\animal_tiger09.jpg        	1	1	1	animal_tiger09.jpg   	animals2 	1	tiger     	33	tiger09     	338	alive    	1	moves	1	natural 	1	n	0	0    	 	0.0	0	76.0111797999125	76.1110706999898	0.0998909000772982
58368	100	35	stimuli\movArt\train\ma_train04.jpg              	1	1	1	ma_train04.jpg       	movArt   	2	train     	34	train04     	343	not_alive	0	moves	1	artefact	0	n	0	0    	 	0.0	0	76.1612102999352	76.26119859982279	0.0999882998876273
58518	100	36	stimuli\plant\grass\plant_grass05.jpg            	1	1	1	plant_grass05.jpg    	plant    	6	grass     	17	grass05     	174	alive    	1	still	0	natural 	1	n	0	0    	 	0.0	0	76.31127589987591	76.4111248999834	0.0998490001074969
58668	100	37	stimuli\nonmovArt\clothespeg\nma_clothespeg10.jpg	1	1	1	nma_clothespeg10.jpg 	nonmovArt	4	clothespeg	8	clothespeg10	89	not_alive	0	still	0	artefact	0	n	0	0    	 	0.0	0	76.46130779990929	76.56106380000709	0.09975600009784101
58818	100	38	stimuli\movArt\car\ma_car08.jpg                  	1	1	1	ma_car08.jpg         	movArt   	2	car       	5	car08       	57	not_alive	0	moves	1	artefact	0	n	0	0    	 	0.0	0	76.6111777999904	76.71107129985471	0.0998934998642653
58968	100	39	stimuli\nonmovArt\clothespeg\nma_clothespeg05.jpg	1	1	1	nma_clothespeg05.jpg 	nonmovArt	4	clothespeg	8	clothespeg05	84	not_alive	0	still	0	artefact	0	n	0	0    	 	0.0	0	76.7611683998257	76.8610608999152	0.0998925000894814
59118	100	40	stimuli\animals\dog\animal_dog02.jpg             	1	1	1	animal_dog02.jpg     	animals  	0	dog       	11	dog02       	111	alive    	1	moves	1	natural 	1	n	1	0    	 	0.0	0	76.9111583000049	77.0110724999104	0.09991419990547
59268	100	41	stimuli\nonmovArt\headphones\nma_headphones05.jpg	1	1	1	nma_headphones05.jpg 	nonmovArt	4	headphones	18	headphones05	184	not_alive	0	still	0	artefact	0	n	0	0    	 	0.0	0	77.06114669982341	77.16105249989779	0.0999058000743389
59418	100	42	stimuli\animals2\tiger\animal_tiger02.jpg        	1	1	1	animal_tiger02.jpg   	animals2 	1	tiger     	33	tiger02     	331	alive    	1	moves	1	natural 	1	n	0	1    	f	0.29202559986151694	1	77.2111592998262	77.3110712999478	0.0999120001215487
59568	100	43	stimuli\animals\cat\animal_cat08.jpg             	1	1	1	animal_cat08.jpg     	animals  	0	cat       	6	cat08       	67	alive    	1	moves	1	natural 	1	n	1	0    	 	0.0	0	77.36115589994009	77.4610418998636	0.0998859999235719
59718	100	44	stimuli\animals\horse\animal_horse03.jpg         	1	1	1	animal_horse03.jpg   	animals  	0	horse     	20	horse03     	202	alive    	1	moves	1	natural 	1	n	0	0    	 	0.0	0	77.5111401998438	77.6110427000094	0.0999025001656264
59868	100	45	stimuli\movArt\boat\ma_boat01.jpg                	1	1	1	ma_boat01.jpg        	movArt   	2	boat      	2	boat01      	20	not_alive	0	moves	1	artefact	0	n	0	1    	f	0.29200019990094	1	77.66115479986179	77.7610496999696	0.0998949001077562
60018	100	46	stimuli\animals2\whale\animal_whale01.jpg        	1	1	1	animal_whale01.jpg   	animals2 	1	whale     	39	whale01     	390	alive    	1	moves	1	natural 	1	n	0	0    	 	0.0	0	77.81114349979909	77.911060599843	0.0999171000439673
60168	100	47	stimuli\movNat\waves\mn_waves01.jpg              	1	1	1	mn_waves01.jpg       	movNat   	3	waves     	38	waves01     	380	not_alive	0	moves	1	natural 	1	n	0	0    	 	0.0	0	77.9612147998996	78.06105739995841	0.0998426000587642
60318	100	48	stimuli\movArt\bus\ma_bus01.jpg                  	1	1	1	ma_bus01.jpg         	movArt   	2	bus       	3	bus01       	30	not_alive	0	moves	1	artefact	0	n	0	0    	 	0.0	0	78.11118749994779	78.2110640997998	0.0998765998519957
60468	100	49	stimuli\movNat\river\mn_river02.jpg              	1	1	1	mn_river02.jpg       	movNat   	3	river     	29	river02     	291	not_alive	0	moves	1	natural 	1	n	0	0    	 	0.0	0	78.2611477000173	78.3610370999668	0.0998893999494612
60618	100	50	stimuli\movNat\river\mn_river09.jpg              	1	1	1	mn_river09.jpg       	movNat   	3	river     	29	river09     	298	not_alive	0	moves	1	natural 	1	n	0	0    	 	0.0	0	78.41114989994091	78.5110479998402	0.09989809989929199
60768	100	51	stimuli\animals\cat\animal_cat03.jpg             	1	1	1	animal_cat03.jpg     	animals  	0	cat       	6	cat03       	62	alive    	1	moves	1	natural 	1	n	0	0    	 	0.0	0	78.5611374999862	78.6610387999099	0.0999012999236583
60918	100	52	stimuli\nonmovNat\rock\nmn_rock07.jpg            	1	1	1	nmn_rock07.jpg       	nonmovNat	5	rock      	30	rock07      	306	not_alive	0	still	0	natural 	1	n	0	0    	 	0.0	0	78.7111441998277	78.81104359985329	0.0998994000256061
61068	100	53	stimuli\animals\dolphin\animal_dolphin05.jpg     	1	1	1	animal_dolphin05.jpg 	animals  	0	dolphin   	12	dolphin05   	124	alive    	1	moves	1	natural 	1	n	0	0    	 	0.0	0	78.8611477999948	78.9610452000052	0.0998974000103771
61218	100	54	stimuli\movNat\waterfall\mn_waterfall10.jpg      	1	1	1	mn_waterfall10.jpg   	movNat   	3	waterfall 	37	waterfall10 	379	not_alive	0	moves	1	natural 	1	n	0	0    	 	0.0	0	79.0111242998391	79.11105129984209	0.0999270000029355
61368	100	55	stimuli\movNat\fire\mn_fire01.jpg                	1	1	1	mn_fire01.jpg        	movNat   	3	fire      	15	fire01      	150	not_alive	0	moves	1	natural 	1	n	0	0    	 	0.0	0	79.16114139999259	79.261034599971	0.0998931999783963
61518	100	56	stimuli\plant\cactus\plant_cactus04.jpg          	1	1	1	plant_cactus04.jpg   	plant    	6	cactus    	4	cactus04    	43	alive    	1	still	0	natural 	1	n	0	0    	 	0.0	0	79.3111276999116	79.41102829994641	0.0999006000347435
61668	100	57	stimuli\nonmovArt\mug\nma_mug04.jpg              	1	1	1	nma_mug04.jpg        	nonmovArt	4	mug       	26	mug04       	263	not_alive	0	still	0	artefact	0	n	0	0    	 	0.0	0	79.4611338998657	79.561051499797	0.0999175999313592
61818	100	58	stimuli\plant\vine\plant_vine01.jpg              	1	1	1	plant_vine01.jpg     	plant    	6	vine      	36	vine01      	360	alive    	1	still	0	natural 	1	n	0	0    	 	0.0	0	79.61112349992621	79.71106999996121	0.0999465000350028
61968	100	59	stimuli\animals2\whale\animal_whale09.jpg        	1	1	1	animal_whale09.jpg   	animals2 	1	whale     	39	whale09     	398	alive    	1	moves	1	natural 	1	n	0	0    	 	0.0	0	79.7612728998065	79.8611202000175	0.0998473002109676
62118	100	60	stimuli\nonmovArt\bench\nma_bench05.jpg          	1	1	1	nma_bench05.jpg      	nonmovArt	4	bench     	1	bench05     	14	not_alive	0	still	0	artefact	0	n	0	0    	 	0.0	0	79.91121559985909	80.0110282998066	0.0998126999475062
62268	100	61	stimuli\nonmovArt\lock\nma_lock05.jpg            	1	1	1	nma_lock05.jpg       	nonmovArt	4	lock      	24	lock05      	244	not_alive	0	still	0	artefact	0	n	1	0    	 	0.0	0	80.0611179999542	80.1610411999282	0.0999231999740004
62418	100	62	stimuli\nonmovNat\cliff\nmn_cliff10.jpg          	1	1	1	nmn_cliff10.jpg      	nonmovNat	5	cliff     	7	cliff10     	79	not_alive	0	still	0	natural 	1	n	0	0    	 	0.0	0	80.2111182999797	80.31089279986921	0.0997744998894632
62568	100	63	stimuli\movArt\helicopter\ma_helicopter04.jpg    	1	1	1	ma_helicopter04.jpg  	movArt   	2	helicopter	19	helicopter04	193	not_alive	0	moves	1	artefact	0	n	0	1    	f	0.30019129998982	1	80.3611110998318	80.4610321999062	0.0999211000744253
62718	100	64	stimuli\nonmovNat\sand\nmn_sand10.jpg            	1	1	1	nmn_sand10.jpg       	nonmovNat	5	sand      	31	sand10      	319	not_alive	0	still	0	natural 	1	n	0	0    	 	0.0	0	80.51116719981658	80.61103189992721	0.0998647001106292
62868	100	65	stimuli\animals2\pigeon\animal_pigeon06.jpg      	1	1	1	animal_pigeon06.jpg  	animals2 	1	pigeon    	28	pigeon06    	285	alive    	1	moves	1	natural 	1	n	0	0    	 	0.0	0	80.6611356998328	80.7610321999528	0.0998965001199394
63018	100	66	stimuli\plant\vine\plant_vine06.jpg              	1	1	1	plant_vine06.jpg     	plant    	6	vine      	36	vine06      	365	alive    	1	still	0	natural 	1	n	0	0    	 	0.0	0	80.8111195999663	80.911048799986	0.0999292000196874
63168	100	67	stimuli\plant2\lemontree\plant_lemontree09.jpg   	1	1	1	plant_lemontree09.jpg	plant2   	7	lemontree 	22	lemontree09 	228	alive    	1	still	0	natural 	1	n	0	0    	 	0.0	0	80.9611262998078	81.061064499896	0.0999382000882178
63318	100	68	stimuli\plant2\fern\plant_fern04.jpg             	1	1	1	plant_fern04.jpg     	plant2   	7	fern      	14	fern04      	143	alive    	1	still	0	natural 	1	n	0	0    	 	0.0	0	81.11110029998241	81.2110088998452	0.0999085998628288
63468	100	69	stimuli\plant2\palmtree\plant_palmtree04.jpg     	1	1	1	plant_palmtree04.jpg 	plant2   	7	palmtree  	27	palmtree04  	273	alive    	1	still	0	natural 	1	n	0	0    	 	0.0	0	81.26111289998519	81.36103179981	0.0999188998248428
63618	100	70	stimuli\movArt\helicopter\ma_helicopter09.jpg    	1	1	1	ma_helicopter09.jpg  	movArt   	2	helicopter	19	helicopter09	198	not_alive	0	moves	1	artefact	0	n	0	0    	 	0.0	0	81.41112429997891	81.5110700998921	0.0999457999132573
63768	100	71	stimuli\nonmovNat\cliff\nmn_cliff03.jpg          	1	1	1	nmn_cliff03.jpg      	nonmovNat	5	cliff     	7	cliff03     	72	not_alive	0	still	0	natural 	1	n	0	0    	 	0.0	0	81.56119999988	81.66112930001691	0.0999293001368642
63918	100	72	stimuli\nonmovArt\lock\nma_lock04.jpg            	1	1	1	nma_lock04.jpg       	nonmovArt	4	lock      	24	lock04      	243	not_alive	0	still	0	artefact	0	n	0	0    	 	0.0	0	81.7111058998853	81.8109981999733	0.0998923000879585
64068	100	73	stimuli\animals2\bee\animal_bee06.jpg            	1	1	1	animal_bee06.jpg     	animals2 	1	bee       	0	bee06       	5	alive    	1	moves	1	natural 	1	n	0	0    	 	0.0	0	81.8611239998136	81.961014200002	0.0998902001883834
64218	100	74	stimuli\animals\eagle\animal_eagle10.jpg         	1	1	1	animal_eagle10.jpg   	animals  	0	eagle     	13	eagle10     	139	alive    	1	moves	1	natural 	1	n	0	0    	 	0.0	0	82.01110259979029	82.11100489995441	0.0999023001641035
64368	100	75	stimuli\nonmovNat\rock\nmn_rock09.jpg            	1	1	1	nmn_rock09.jpg       	nonmovNat	5	rock      	30	rock09      	308	not_alive	0	still	0	natural 	1	n	0	0    	 	0.0	0	82.1611014998052	82.2610130999237	0.0999116001185029
64518	100	76	stimuli\plant2\moss\plant_moss10.jpg             	1	1	1	plant_moss10.jpg     	plant2   	7	moss      	25	moss10      	259	alive    	1	still	0	natural 	1	n	0	0    	 	0.0	0	82.3111017998308	82.4110106998123	0.0999088999815285
64668	100	77	stimuli\movNat\waves\mn_waves07.jpg              	1	1	1	mn_waves07.jpg       	movNat   	3	waves     	38	waves07     	386	not_alive	0	moves	1	natural 	1	n	0	0    	 	0.0	0	82.4611201998778	82.561012199847	0.0998919999692589
64818	100	78	stimuli\plant\grass\plant_grass08.jpg            	1	1	1	plant_grass08.jpg    	plant    	6	grass     	17	grass08     	177	alive    	1	still	0	natural 	1	n	0	0    	 	0.0	0	82.6109910998493	82.71098169987091	0.099990600021556
64968	100	79	stimuli\movNat\hotspring\mn_hotspring10.jpg      	1	1	1	mn_hotspring10.jpg   	movNat   	3	hotspring 	21	hotspring10 	219	not_alive	0	moves	1	natural 	1	n	0	0    	 	0.0	0	82.7611008000094	82.8609817998949	0.0998809998854994
70702	100	80	stimuli\nonmovNat\crystal\nmn_crystal06.jpg      	1	2	1	nmn_crystal06.jpg    	nonmovNat	5	crystal   	10	crystal06   	105	not_alive	0	still	0	natural 	1	n	0	0    	 	0.0	0	88.49447629996571	88.59421119978649	0.0997348998207598
70852	100	81	stimuli\animals\dolphin\animal_dolphin07.jpg     	1	2	1	animal_dolphin07.jpg 	animals  	0	dolphin   	12	dolphin07   	126	alive    	1	moves	1	natural 	1	n	0	0    	 	0.0	0	88.6444053999148	88.7443150999025	0.0999096999876201
71002	100	82	stimuli\animals2\lemur\animal_lemur01.jpg        	1	2	1	animal_lemur01.jpg   	animals2 	1	lemur     	23	lemur01     	230	alive    	1	moves	1	natural 	1	n	0	0    	 	0.0	0	88.7943803998642	88.8942797000054	0.09989930014125999
71152	100	83	stimuli\plant2\fern\plant_fern06.jpg             	1	2	1	plant_fern06.jpg     	plant2   	7	fern      	14	fern06      	145	alive    	1	still	0	natural 	1	n	0	0    	 	0.0	0	88.9443820999004	89.044281899929	0.0998998000286519
71302	100	84	stimuli\movArt\bus\ma_bus07.jpg                  	1	2	1	ma_bus07.jpg         	movArt   	2	bus       	3	bus07       	36	not_alive	0	moves	1	artefact	0	n	0	0    	 	0.0	0	89.09440779988658	89.1942777999211	0.0998700000345707
71452	100	85	stimuli\plant2\palmtree\plant_palmtree08.jpg     	1	2	1	plant_palmtree08.jpg 	plant2   	7	palmtree  	27	palmtree08  	277	alive    	1	still	0	natural 	1	n	0	0    	 	0.0	0	89.2443738998845	89.34428189997558	0.0999080000910908
71602	100	86	stimuli\plant\tree\plant_tree01.jpg              	1	2	1	plant_tree01.jpg     	plant    	6	tree      	35	tree01      	350	alive    	1	still	0	natural 	1	n	0	0    	 	0.0	0	89.3943612999283	89.49426299985501	0.0999016999267041
71752	100	87	stimuli\nonmovArt\headphones\nma_headphones08.jpg	1	2	1	nma_headphones08.jpg 	nonmovArt	4	headphones	18	headphones08	187	not_alive	0	still	0	artefact	0	n	0	0    	 	0.0	0	89.5443549999036	89.64427519985479	0.0999201999511569
71902	100	88	stimuli\movNat\hotspring\mn_hotspring01.jpg      	1	2	1	mn_hotspring01.jpg   	movNat   	3	hotspring 	21	hotspring01 	210	not_alive	0	moves	1	natural 	1	n	0	0    	 	0.0	0	89.6943762998562	89.79426369979049	0.0998873999342322
72052	100	89	stimuli\movArt\car\ma_car10.jpg                  	1	2	1	ma_car10.jpg         	movArt   	2	car       	5	car10       	59	not_alive	0	moves	1	artefact	0	n	0	0    	 	0.0	0	89.8443733998574	89.9442779999226	0.0999046000652015
72201	100	90	stimuli\nonmovNat\sand\nmn_sand01.jpg            	1	2	1	nmn_sand01.jpg       	nonmovNat	5	sand      	31	sand01      	310	not_alive	0	still	0	natural 	1	n	0	0    	 	0.0	0	89.99347739992659	90.0934807998128	0.100003399886191
72351	100	91	stimuli\animals\dog\animal_dog07.jpg             	1	2	1	animal_dog07.jpg     	animals  	0	dog       	11	dog07       	116	alive    	1	moves	1	natural 	1	n	0	0    	 	0.0	0	90.1434855000116	90.2434799999464	0.0999944999348372
72501	100	92	stimuli\animals\dolphin\animal_dolphin03.jpg     	1	2	1	animal_dolphin03.jpg 	animals  	0	dolphin   	12	dolphin03   	122	alive    	1	moves	1	natural 	1	n	0	0    	 	0.0	0	90.29351129988208	90.3934742999263	0.0999630000442266
72651	100	93	stimuli\plant\tree\plant_tree02.jpg              	1	2	1	plant_tree02.jpg     	plant    	6	tree      	35	tree02      	351	alive    	1	still	0	natural 	1	n	0	0    	 	0.0	0	90.44348139991051	90.54346909979358	0.0999876998830586
72801	100	94	stimuli\nonmovArt\bench\nma_bench09.jpg          	1	2	1	nma_bench09.jpg      	nonmovArt	4	bench     	1	bench09     	18	not_alive	0	still	0	artefact	0	n	0	0    	 	0.0	0	90.59347709990108	90.69346609991041	0.0999890000093728
72951	100	95	stimuli\animals\dog\animal_dog05.jpg             	1	2	1	animal_dog05.jpg     	animals  	0	dog       	11	dog05       	114	alive    	1	moves	1	natural 	1	n	0	0    	 	0.0	0	90.74347739992659	90.8434687999543	0.0999914000276476
73101	100	96	stimuli\movNat\river\mn_river06.jpg              	1	2	1	mn_river06.jpg       	movNat   	3	river     	29	river06     	295	not_alive	0	moves	1	natural 	1	n	0	0    	 	0.0	0	90.89347549993539	90.99346639984292	0.099990899907425
73251	100	97	stimuli\movNat\fire\mn_fire08.jpg                	1	2	1	mn_fire08.jpg        	movNat   	3	fire      	15	fire08      	157	not_alive	0	moves	1	natural 	1	n	0	0    	 	0.0	0	91.0434760998469	91.14346499997191	0.0999889001250267
73401	100	98	stimuli\animals2\lemur\animal_lemur05.jpg        	1	2	1	animal_lemur05.jpg   	animals2 	1	lemur     	23	lemur05     	234	alive    	1	moves	1	natural 	1	n	0	0    	 	0.0	0	91.1934724999592	91.2934649998788	0.0999924999196082
73551	100	99	stimuli\animals\cat\animal_cat10.jpg             	1	2	1	animal_cat10.jpg     	animals  	0	cat       	6	cat10       	69	alive    	1	moves	1	natural 	1	n	0	0    	 	0.0	0	91.3434745999984	91.4434589999728	0.0999843999743461
73701	100	100	stimuli\plant\flower\plant_flower09.jpg          	1	2	1	plant_flower09.jpg   	plant    	6	flower    	16	flower09    	168	alive    	1	still	0	natural 	1	n	0	0    	 	0.0	0	91.4934701998718	91.59346030000592	0.0999901001341641
73851	100	101	stimuli\nonmovNat\crystal\nmn_crystal05.jpg      	1	2	1	nmn_crystal05.jpg    	nonmovNat	5	crystal   	10	crystal05   	104	not_alive	0	still	0	natural 	1	n	0	0    	 	0.0	0	91.64348019985479	91.7434582998976	0.0999781000427901
74001	100	102	stimuli\movArt\boat\ma_boat08.jpg                	1	2	1	ma_boat08.jpg        	movArt   	2	boat      	2	boat08      	27	not_alive	0	moves	1	artefact	0	n	0	0    	 	0.0	0	91.79346929979509	91.8934547998942	0.0999855000991374
74151	100	103	stimuli\movArt\train\ma_train08.jpg              	1	2	1	ma_train08.jpg       	movArt   	2	train     	34	train08     	347	not_alive	0	moves	1	artefact	0	n	0	0    	 	0.0	0	91.9434665997978	92.04347049980422	0.10000390000641302
74301	100	104	stimuli\nonmovNat\shell\nmn_shell07.jpg          	1	2	1	nmn_shell07.jpg      	nonmovNat	5	shell     	32	shell07     	326	not_alive	0	still	0	natural 	1	n	0	0    	 	0.0	0	92.09348169993608	92.193453699816	0.0999719998799264
74451	100	105	stimuli\movNat\waterfall\mn_waterfall05.jpg      	1	2	1	mn_waterfall05.jpg   	movNat   	3	waterfall 	37	waterfall05 	374	not_alive	0	moves	1	natural 	1	n	1	0    	 	0.0	0	92.2434639998246	92.34345179982479	0.0999878000002354
74601	100	106	stimuli\animals2\whale\animal_whale08.jpg        	1	2	1	animal_whale08.jpg   	animals2 	1	whale     	39	whale08     	397	alive    	1	moves	1	natural 	1	n	0	1    	f	0.250197499990463	1	92.3934616998304	92.49344949983059	0.0999878000002354
74751	100	107	stimuli\movArt\boat\ma_boat05.jpg                	1	2	1	ma_boat05.jpg        	movArt   	2	boat      	2	boat05      	24	not_alive	0	moves	1	artefact	0	n	0	0    	 	0.0	0	92.54346099984829	92.6434493998531	0.0999884000048041
74901	100	108	stimuli\plant\cactus\plant_cactus08.jpg          	1	2	1	plant_cactus08.jpg   	plant    	6	cactus    	4	cactus08    	47	alive    	1	still	0	natural 	1	n	0	0    	 	0.0	0	92.6934579999652	92.7934497999959	0.0999918000306934
75051	100	109	stimuli\nonmovNat\cliff\nmn_cliff09.jpg          	1	2	1	nmn_cliff09.jpg      	nonmovNat	5	cliff     	7	cliff09     	78	not_alive	0	still	0	natural 	1	n	0	0    	 	0.0	0	92.84345970000142	92.9434443998616	0.0999846998602152
75201	100	110	stimuli\nonmovNat\shell\nmn_shell05.jpg          	1	2	1	nmn_shell05.jpg      	nonmovNat	5	shell     	32	shell05     	324	not_alive	0	still	0	natural 	1	n	0	0    	 	0.0	0	92.9934556998778	93.0934431999922	0.0999875001143664
75351	100	111	stimuli\movNat\waterfall\mn_waterfall01.jpg      	1	2	1	mn_waterfall01.jpg   	movNat   	3	waterfall 	37	waterfall01 	370	not_alive	0	moves	1	natural 	1	n	0	0    	 	0.0	0	93.14345609978771	93.2434455999173	0.0999895001295954
75501	100	112	stimuli\nonmovArt\lock\nma_lock06.jpg            	1	2	1	nma_lock06.jpg       	nonmovArt	4	lock      	24	lock06      	245	not_alive	0	still	0	artefact	0	n	0	0    	 	0.0	0	93.2934524999	93.3934402999002	0.0999878000002354
75651	100	113	stimuli\nonmovNat\rock\nmn_rock01.jpg            	1	2	1	nmn_rock01.jpg       	nonmovNat	5	rock      	30	rock01      	300	not_alive	0	still	0	natural 	1	n	0	0    	 	0.0	0	93.4434513999149	93.5434398998041	0.0999884998891502
75801	100	114	stimuli\nonmovNat\sand\nmn_sand08.jpg            	1	2	1	nmn_sand08.jpg       	nonmovNat	5	sand      	31	sand08      	317	not_alive	0	still	0	natural 	1	n	0	0    	 	0.0	0	93.59344819979741	93.69344129995442	0.0999931001570075
75951	100	115	stimuli\animals\horse\animal_horse09.jpg         	1	2	1	animal_horse09.jpg   	animals  	0	horse     	20	horse09     	208	alive    	1	moves	1	natural 	1	n	0	0    	 	0.0	0	93.74344879994172	93.8434681999497	0.10001940000802301
76101	100	116	stimuli\movArt\helicopter\ma_helicopter04.jpg    	1	2	1	ma_helicopter04.jpg  	movArt   	2	helicopter	19	helicopter04	193	not_alive	0	moves	1	artefact	0	n	0	0    	 	0.0	0	93.8934501998592	93.99343739985491	0.0999871999956667
76251	100	117	stimuli\movArt\train\ma_train02.jpg              	1	2	1	ma_train02.jpg       	movArt   	2	train     	34	train02     	341	not_alive	0	moves	1	artefact	0	n	0	0    	 	0.0	0	94.04344699997459	94.1434341999702	0.0999871999956667
76401	100	118	stimuli\movArt\bus\ma_bus01.jpg                  	1	2	1	ma_bus01.jpg         	movArt   	2	bus       	3	bus01       	30	not_alive	0	moves	1	artefact	0	n	0	0    	 	0.0	0	94.1934423998464	94.29343069996679	0.099988300120458
76551	100	119	stimuli\plant2\moss\plant_moss02.jpg             	1	2	1	plant_moss02.jpg     	plant2   	7	moss      	25	moss02      	251	alive    	1	still	0	natural 	1	n	0	0    	 	0.0	0	94.34344379999679	94.4434308998752	0.0999870998784899
76701	100	120	stimuli\animals\eagle\animal_eagle03.jpg         	1	2	1	animal_eagle03.jpg   	animals  	0	eagle     	13	eagle03     	132	alive    	1	moves	1	natural 	1	n	0	0    	 	0.0	0	94.4934396999888	94.5934288999997	0.0999892000108957
76851	100	121	stimuli\plant\tree\plant_tree07.jpg              	1	2	1	plant_tree07.jpg     	plant    	6	tree      	35	tree07      	356	alive    	1	still	0	natural 	1	n	0	0    	 	0.0	0	94.64343960001129	94.7434262000024	0.099986599991098
77001	100	122	stimuli\animals\cat\animal_cat07.jpg             	1	2	1	animal_cat07.jpg     	animals  	0	cat       	6	cat07       	66	alive    	1	moves	1	natural 	1	n	0	0    	 	0.0	0	94.7934371998999	94.89342649979521	0.0999892998952418
77151	100	123	stimuli\animals\dolphin\animal_dolphin01.jpg     	1	2	1	animal_dolphin01.jpg 	animals  	0	dolphin   	12	dolphin01   	120	alive    	1	moves	1	natural 	1	n	0	0    	 	0.0	0	94.9434360999148	95.04342499980709	0.099988899892196
77301	100	124	stimuli\animals2\bee\animal_bee05.jpg            	1	2	1	animal_bee05.jpg     	animals2 	1	bee       	0	bee05       	4	alive    	1	moves	1	natural 	1	n	0	0    	 	0.0	0	95.0934352998156	95.19342469982809	0.0999894000124186
77451	100	125	stimuli\movArt\boat\ma_boat10.jpg                	1	2	1	ma_boat10.jpg        	movArt   	2	boat      	2	boat10      	29	not_alive	0	moves	1	artefact	0	n	0	0    	 	0.0	0	95.24343199981381	95.3434218999464	0.0999899001326412
77601	100	126	stimuli\movNat\waves\mn_waves02.jpg              	1	2	1	mn_waves02.jpg       	movNat   	3	waves     	38	waves02     	381	not_alive	0	moves	1	natural 	1	n	0	0    	 	0.0	0	95.39343109983021	95.4934296999127	0.0999986000824719
77751	100	127	stimuli\plant2\moss\plant_moss04.jpg             	1	2	1	plant_moss04.jpg     	plant2   	7	moss      	25	moss04      	253	alive    	1	still	0	natural 	1	n	0	0    	 	0.0	0	95.54343109996991	95.6434366998728	0.100005599902943
77901	100	128	stimuli\nonmovArt\headphones\nma_headphones10.jpg	1	2	1	nma_headphones10.jpg 	nonmovArt	4	headphones	18	headphones10	189	not_alive	0	still	0	artefact	0	n	0	0    	 	0.0	0	95.69343469990419	95.79342000000179	0.0999853000976145
78051	100	129	stimuli\movArt\car\ma_car09.jpg                  	1	2	1	ma_car09.jpg         	movArt   	2	car       	5	car09       	58	not_alive	0	moves	1	artefact	0	n	0	0    	 	0.0	0	95.8434264999814	95.94341559987521	0.0999890998937189
78201	100	130	stimuli\animals2\tiger\animal_tiger06.jpg        	1	2	1	animal_tiger06.jpg   	animals2 	1	tiger     	33	tiger06     	335	alive    	1	moves	1	natural 	1	n	0	0    	 	0.0	0	95.9934247999918	96.09341420000419	0.0999894000124186
78351	100	131	stimuli\plant\cactus\plant_cactus01.jpg          	1	2	1	plant_cactus01.jpg   	plant    	6	cactus    	4	cactus01    	40	alive    	1	still	0	natural 	1	n	0	0    	 	0.0	0	96.1434249999002	96.2434125000145	0.0999875001143664
78501	100	132	stimuli\animals2\bee\animal_bee08.jpg            	1	2	1	animal_bee08.jpg     	animals2 	1	bee       	0	bee08       	7	alive    	1	moves	1	natural 	1	n	0	0    	 	0.0	0	96.2934220999014	96.3934101997875	0.0999880998861044
78651	100	133	stimuli\animals\cat\animal_cat04.jpg             	1	2	1	animal_cat04.jpg     	animals  	0	cat       	6	cat04       	63	alive    	1	moves	1	natural 	1	n	0	0    	 	0.0	0	96.4434205999132	96.5434117999394	0.0999912000261247
78801	100	134	stimuli\plant\flower\plant_flower08.jpg          	1	2	1	plant_flower08.jpg   	plant    	6	flower    	16	flower08    	167	alive    	1	still	0	natural 	1	n	0	0    	 	0.0	0	96.59341839980341	96.693409799831	0.0999914000276476
78951	100	135	stimuli\nonmovNat\crystal\nmn_crystal05.jpg      	1	2	1	nmn_crystal05.jpg    	nonmovNat	5	crystal   	10	crystal05   	104	not_alive	0	still	0	natural 	1	n	0	0    	 	0.0	0	96.74341979995371	96.8434070998337	0.0999872998800128
79101	100	136	stimuli\movNat\fire\mn_fire04.jpg                	1	2	1	mn_fire04.jpg        	movNat   	3	fire      	15	fire04      	153	not_alive	0	moves	1	natural 	1	n	1	0    	 	0.0	0	96.8934160999488	96.9934054999612	0.0999894000124186
79251	100	137	stimuli\movArt\bus\ma_bus06.jpg                  	1	2	1	ma_bus06.jpg         	movArt   	2	bus       	3	bus06       	35	not_alive	0	moves	1	artefact	0	n	0	0    	 	0.0	0	97.04341649985871	97.1434064998757	0.0999900000169873
79401	100	138	stimuli\plant\cactus\plant_cactus10.jpg          	1	2	1	plant_cactus10.jpg   	plant    	6	cactus    	4	cactus10    	49	alive    	1	still	0	natural 	1	n	0	1    	f	0.391985199879855	1	97.19339449983092	97.29340199986471	0.100007500033826
79551	100	139	stimuli\plant2\moss\plant_moss03.jpg             	1	2	1	plant_moss03.jpg     	plant2   	7	moss      	25	moss03      	252	alive    	1	still	0	natural 	1	n	0	0    	 	0.0	0	97.34341069986108	97.44340369990101	0.0999930000398308
79701	100	140	stimuli\plant\vine\plant_vine09.jpg              	1	2	1	plant_vine09.jpg     	plant    	6	vine      	36	vine09      	368	alive    	1	still	0	natural 	1	n	0	0    	 	0.0	0	97.4934150998015	97.5933982999996	0.0999832001980394
79851	100	141	stimuli\plant\tree\plant_tree02.jpg              	1	2	1	plant_tree02.jpg     	plant    	6	tree      	35	tree02      	351	alive    	1	still	0	natural 	1	n	0	0    	 	0.0	0	97.6434078998864	97.7434040999506	0.0999962000641971
80001	100	142	stimuli\movNat\waves\mn_waves10.jpg              	1	2	1	mn_waves10.jpg       	movNat   	3	waves     	38	waves10     	389	not_alive	0	moves	1	natural 	1	n	0	0    	 	0.0	0	97.7934129999485	97.8934020998422	0.0999890998937189
80151	100	143	stimuli\animals2\tiger\animal_tiger03.jpg        	1	2	1	animal_tiger03.jpg   	animals2 	1	tiger     	33	tiger03     	332	alive    	1	moves	1	natural 	1	n	0	0    	 	0.0	0	97.9434114999604	98.04339509992859	0.0999835999682545
80301	100	144	stimuli\plant\flower\plant_flower07.jpg          	1	2	1	plant_flower07.jpg   	plant    	6	flower    	16	flower07    	166	alive    	1	still	0	natural 	1	n	0	0    	 	0.0	0	98.0934043999296	98.19339849986142	0.0999940999317914
80451	100	145	stimuli\movArt\helicopter\ma_helicopter05.jpg    	1	2	1	ma_helicopter05.jpg  	movArt   	2	helicopter	19	helicopter05	194	not_alive	0	moves	1	artefact	0	n	0	0    	 	0.0	0	98.2434074999764	98.3433991998899	0.0999916999135166
80601	100	146	stimuli\nonmovArt\clothespeg\nma_clothespeg06.jpg	1	2	1	nma_clothespeg06.jpg 	nonmovArt	4	clothespeg	8	clothespeg06	85	not_alive	0	still	0	artefact	0	n	0	0    	 	0.0	0	98.39340369985442	98.4933894998394	0.0999857999850064
80751	100	147	stimuli\nonmovNat\rock\nmn_rock01.jpg            	1	2	1	nmn_rock01.jpg       	nonmovNat	5	rock      	30	rock01      	300	not_alive	0	still	0	natural 	1	n	0	0    	 	0.0	0	98.54339819983579	98.64339189999741	0.0999937001615762
80901	100	148	stimuli\animals2\pigeon\animal_pigeon05.jpg      	1	2	1	animal_pigeon05.jpg  	animals2 	1	pigeon    	28	pigeon05    	284	alive    	1	moves	1	natural 	1	n	0	0    	 	0.0	0	98.6933980998583	98.7933906000108	0.0999925001524388
81051	100	149	stimuli\plant2\fern\plant_fern07.jpg             	1	2	1	plant_fern07.jpg     	plant2   	7	fern      	14	fern07      	146	alive    	1	still	0	natural 	1	n	0	0    	 	0.0	0	98.84339509997508	98.94338739989321	0.0999922999180853
81201	100	150	stimuli\movArt\train\ma_train02.jpg              	1	2	1	ma_train02.jpg       	movArt   	2	train     	34	train02     	341	not_alive	0	moves	1	artefact	0	n	0	0    	 	0.0	0	98.9933936998714	99.0933850000147	0.0999913001433014
81351	100	151	stimuli\movNat\hotspring\mn_hotspring05.jpg      	1	2	1	mn_hotspring05.jpg   	movNat   	3	hotspring 	21	hotspring05 	214	not_alive	0	moves	1	natural 	1	n	0	0    	 	0.0	0	99.1434055999853	99.2433845999185	0.0999789999332279
81501	100	152	stimuli\movNat\river\mn_river06.jpg              	1	2	1	mn_river06.jpg       	movNat   	3	river     	29	river06     	295	not_alive	0	moves	1	natural 	1	n	0	0    	 	0.0	0	99.2933946999256	99.39341089990921	0.10001619998365599
81651	100	153	stimuli\animals2\pigeon\animal_pigeon07.jpg      	1	2	1	animal_pigeon07.jpg  	animals2 	1	pigeon    	28	pigeon07    	286	alive    	1	moves	1	natural 	1	n	0	0    	 	0.0	0	99.44339419994499	99.5433786998037	0.0999844998586922
81801	100	154	stimuli\animals2\tiger\animal_tiger06.jpg        	1	2	1	animal_tiger06.jpg   	animals2 	1	tiger     	33	tiger06     	335	alive    	1	moves	1	natural 	1	n	0	0    	 	0.0	0	99.59338559978642	99.6933790999465	0.0999935001600533
81951	100	155	stimuli\plant2\palmtree\plant_palmtree09.jpg     	1	2	1	plant_palmtree09.jpg 	plant2   	7	palmtree  	27	palmtree09  	278	alive    	1	still	0	natural 	1	n	0	0    	 	0.0	0	99.74338959995659	99.84337529982442	0.0999856998678296
82101	100	156	stimuli\nonmovArt\lock\nma_lock01.jpg            	1	2	1	nma_lock01.jpg       	nonmovArt	4	lock      	24	lock01      	240	not_alive	0	still	0	artefact	0	n	0	0    	 	0.0	0	99.8933862999547	99.99337499984541	0.0999886998906731
82251	100	157	stimuli\plant2\lemontree\plant_lemontree04.jpg   	1	2	1	plant_lemontree04.jpg	plant2   	7	lemontree 	22	lemontree04 	223	alive    	1	still	0	natural 	1	n	0	0    	 	0.0	0	100.043385799974	100.143374099862	0.0999882998876273
82401	100	158	stimuli\movNat\waterfall\mn_waterfall04.jpg      	1	2	1	mn_waterfall04.jpg   	movNat   	3	waterfall 	37	waterfall04 	373	not_alive	0	moves	1	natural 	1	n	0	0    	 	0.0	0	100.19338299986	100.29337490000799	0.0999919001478701
82551	100	159	stimuli\animals2\lemur\animal_lemur09.jpg        	1	2	1	animal_lemur09.jpg   	animals2 	1	lemur     	23	lemur09     	238	alive    	1	moves	1	natural 	1	n	0	0    	 	0.0	0	100.34338239999501	100.443371000001	0.09998860000632699
95718	100	160	stimuli\animals\horse\animal_horse10.jpg         	1	3	1	animal_horse10.jpg   	animals  	0	horse     	20	horse10     	209	alive    	1	moves	1	natural 	1	n	0	0    	 	0.0	0	113.510813399917	113.610709299799	0.0998958998825401
95868	100	161	stimuli\nonmovNat\cliff\nmn_cliff01.jpg          	1	3	1	nmn_cliff01.jpg      	nonmovNat	5	cliff     	7	cliff01     	70	not_alive	0	still	0	natural 	1	n	0	0    	 	0.0	0	113.660809999797	113.760727899848	0.0999179000500589
96018	100	162	stimuli\movNat\river\mn_river02.jpg              	1	3	1	mn_river02.jpg       	movNat   	3	river     	29	river02     	291	not_alive	0	moves	1	natural 	1	n	0	0    	 	0.0	0	113.81082129990699	113.910724099958	0.0999028000514954
96168	100	163	stimuli\movNat\waterfall\mn_waterfall09.jpg      	1	3	1	mn_waterfall09.jpg   	movNat   	3	waterfall 	37	waterfall09 	378	not_alive	0	moves	1	natural 	1	n	0	0    	 	0.0	0	113.960788499797	114.06072449986799	0.0999360000714659
96318	100	164	stimuli\plant2\palmtree\plant_palmtree01.jpg     	1	3	1	plant_palmtree01.jpg 	plant2   	7	palmtree  	27	palmtree01  	270	alive    	1	still	0	natural 	1	n	0	0    	 	0.0	0	114.110849299934	114.210678099887	0.0998287999536842
96468	100	165	stimuli\plant\grass\plant_grass07.jpg            	1	3	1	plant_grass07.jpg    	plant    	6	grass     	17	grass07     	176	alive    	1	still	0	natural 	1	n	0	0    	 	0.0	0	114.260821599979	114.36072419979601	0.0999025998171418
96618	100	166	stimuli\movArt\boat\ma_boat03.jpg                	1	3	1	ma_boat03.jpg        	movArt   	2	boat      	2	boat03      	22	not_alive	0	moves	1	artefact	0	n	0	0    	 	0.0	0	114.410805799998	114.510732899886	0.0999270998872816
96768	100	167	stimuli\movArt\bus\ma_bus02.jpg                  	1	3	1	ma_bus02.jpg         	movArt   	2	bus       	3	bus02       	31	not_alive	0	moves	1	artefact	0	n	0	0    	 	0.0	0	114.560832799878	114.66069089993799	0.0998581000603735
96918	100	168	stimuli\nonmovArt\mug\nma_mug09.jpg              	1	3	1	nma_mug09.jpg        	nonmovArt	4	mug       	26	mug09       	268	not_alive	0	still	0	artefact	0	n	0	0    	 	0.0	0	114.710794399958	114.81071079988001	0.0999163999222219
97068	100	169	stimuli\movArt\car\ma_car05.jpg                  	1	3	1	ma_car05.jpg         	movArt   	2	car       	5	car05       	54	not_alive	0	moves	1	artefact	0	n	0	0    	 	0.0	0	114.86078589991699	114.960646699881	0.0998607999645173
97218	100	170	stimuli\animals2\lemur\animal_lemur03.jpg        	1	3	1	animal_lemur03.jpg   	animals2 	1	lemur     	23	lemur03     	232	alive    	1	moves	1	natural 	1	n	0	0    	 	0.0	0	115.01079259999099	115.110697699944	0.0999050999525934
97368	100	171	stimuli\animals\dolphin\animal_dolphin10.jpg     	1	3	1	animal_dolphin10.jpg 	animals  	0	dolphin   	12	dolphin10   	129	alive    	1	moves	1	natural 	1	n	0	0    	 	0.0	0	115.16077139996901	115.260680699954	0.0999092999845743
97518	100	172	stimuli\animals\horse\animal_horse02.jpg         	1	3	1	animal_horse02.jpg   	animals  	0	horse     	20	horse02     	201	alive    	1	moves	1	natural 	1	n	0	0    	 	0.0	0	115.31077549979099	115.41068079997801	0.09990530018694699
97668	100	173	stimuli\movArt\boat\ma_boat03.jpg                	1	3	1	ma_boat03.jpg        	movArt   	2	boat      	2	boat03      	22	not_alive	0	moves	1	artefact	0	n	0	0    	 	0.0	0	115.460769199999	115.56064629997101	0.0998770999722182
97818	100	174	stimuli\nonmovNat\sand\nmn_sand04.jpg            	1	3	1	nmn_sand04.jpg       	nonmovNat	5	sand      	31	sand04      	313	not_alive	0	still	0	natural 	1	n	0	0    	 	0.0	0	115.610783600016	115.710666799918	0.0998831999022513
97968	100	175	stimuli\nonmovArt\bench\nma_bench07.jpg          	1	3	1	nma_bench07.jpg      	nonmovArt	4	bench     	1	bench07     	16	not_alive	0	still	0	artefact	0	n	0	0    	 	0.0	0	115.760751699796	115.860682499828	0.0999308000318706
98118	100	176	stimuli\nonmovArt\headphones\nma_headphones10.jpg	1	3	1	nma_headphones10.jpg 	nonmovArt	4	headphones	18	headphones10	189	not_alive	0	still	0	artefact	0	n	0	0    	 	0.0	0	115.910771099851	116.01067129988199	0.0999002000316977
98268	100	177	stimuli\plant2\clover\plant_clover07.jpg         	1	3	1	plant_clover07.jpg   	plant2   	7	clover    	9	clover07    	96	alive    	1	still	0	natural 	1	n	0	0    	 	0.0	0	116.060771999881	116.16067129978902	0.0998992999084293
98418	100	178	stimuli\nonmovNat\crystal\nmn_crystal09.jpg      	1	3	1	nmn_crystal09.jpg    	nonmovNat	5	crystal   	10	crystal09   	108	not_alive	0	still	0	natural 	1	n	0	0    	 	0.0	0	116.21078019985	116.31073609995701	0.09995590010657901
98568	100	179	stimuli\animals2\bee\animal_bee08.jpg            	1	3	1	animal_bee08.jpg     	animals2 	1	bee       	0	bee08       	7	alive    	1	moves	1	natural 	1	n	0	0    	 	0.0	0	116.360850899946	116.46066119987499	0.0998102999292314
98718	100	180	stimuli\nonmovArt\clothespeg\nma_clothespeg05.jpg	1	3	1	nma_clothespeg05.jpg 	nonmovArt	4	clothespeg	8	clothespeg05	84	not_alive	0	still	0	artefact	0	n	0	0    	 	0.0	0	116.510772599839	116.610674700001	0.0999021001625806
98868	100	181	stimuli\nonmovNat\shell\nmn_shell10.jpg          	1	3	1	nmn_shell10.jpg      	nonmovNat	5	shell     	32	shell10     	329	not_alive	0	still	0	natural 	1	n	0	0    	 	0.0	0	116.660768299829	116.760635699844	0.09986740001477301
99018	100	182	stimuli\animals\horse\animal_horse03.jpg         	1	3	1	animal_horse03.jpg   	animals  	0	horse     	20	horse03     	202	alive    	1	moves	1	natural 	1	n	0	0    	 	0.0	0	116.810768899973	116.91066189995001	0.0998929999768734
99168	100	183	stimuli\plant\tree\plant_tree01.jpg              	1	3	1	plant_tree01.jpg     	plant    	6	tree      	35	tree01      	350	alive    	1	still	0	natural 	1	n	0	0    	 	0.0	0	116.96071949997	117.060685099801	0.0999655998311936
99318	100	184	stimuli\plant\grass\plant_grass06.jpg            	1	3	1	plant_grass06.jpg    	plant    	6	grass     	17	grass06     	175	alive    	1	still	0	natural 	1	n	0	0    	 	0.0	0	117.110791699961	117.21066179988001	0.0998700999189168
99468	100	185	stimuli\movArt\car\ma_car06.jpg                  	1	3	1	ma_car06.jpg         	movArt   	2	car       	5	car06       	55	not_alive	0	moves	1	artefact	0	n	0	0    	 	0.0	0	117.26075959997299	117.360638499958	0.0998788999859243
99618	100	186	stimuli\animals2\whale\animal_whale02.jpg        	1	3	1	animal_whale02.jpg   	animals2 	1	whale     	39	whale02     	391	alive    	1	moves	1	natural 	1	n	0	0    	 	0.0	0	117.41075699986	117.510664099827	0.0999070999678224
99768	100	187	stimuli\nonmovArt\headphones\nma_headphones06.jpg	1	3	1	nma_headphones06.jpg 	nonmovArt	4	headphones	18	headphones06	185	not_alive	0	still	0	artefact	0	n	1	0    	 	0.0	0	117.560722199967	117.66066979989401	0.0999475999269634
99918	100	188	stimuli\movArt\train\ma_train01.jpg              	1	3	1	ma_train01.jpg       	movArt   	2	train     	34	train01     	340	not_alive	0	moves	1	artefact	0	n	0	0    	 	0.0	0	117.710769400001	117.81065599992901	0.0998865999281406
100068	100	189	stimuli\animals2\lemur\animal_lemur08.jpg        	1	3	1	animal_lemur08.jpg   	animals2 	1	lemur     	23	lemur08     	237	alive    	1	moves	1	natural 	1	n	0	1    	f	0.39203829993493794	1	117.860769899795	117.96061729988999	0.0998474000953138
100218	100	190	stimuli\plant2\fern\plant_fern06.jpg             	1	3	1	plant_fern06.jpg     	plant2   	7	fern      	14	fern06      	145	alive    	1	still	0	natural 	1	n	0	0    	 	0.0	0	118.010741399834	118.11072759982201	0.0999861999880522
100368	100	191	stimuli\animals\cat\animal_cat04.jpg             	1	3	1	animal_cat04.jpg     	animals  	0	cat       	6	cat04       	63	alive    	1	moves	1	natural 	1	n	0	0    	 	0.0	0	118.16077409987301	118.26065339986201	0.0998792999889701
100518	100	192	stimuli\movNat\hotspring\mn_hotspring04.jpg      	1	3	1	mn_hotspring04.jpg   	movNat   	3	hotspring 	21	hotspring04 	213	not_alive	0	moves	1	natural 	1	n	0	0    	 	0.0	0	118.31075889989701	118.410647299839	0.0998883999418467
100668	100	193	stimuli\animals\dog\animal_dog10.jpg             	1	3	1	animal_dog10.jpg     	animals  	0	dog       	11	dog10       	119	alive    	1	moves	1	natural 	1	n	0	0    	 	0.0	0	118.46074339980301	118.560650700005	0.0999073002021759
100818	100	194	stimuli\plant2\lemontree\plant_lemontree10.jpg   	1	3	1	plant_lemontree10.jpg	plant2   	7	lemontree 	22	lemontree10 	229	alive    	1	still	0	natural 	1	n	0	0    	 	0.0	0	118.610750599997	118.710644799983	0.0998941999860108
100968	100	195	stimuli\animals\dog\animal_dog07.jpg             	1	3	1	animal_dog07.jpg     	animals  	0	dog       	11	dog07       	116	alive    	1	moves	1	natural 	1	n	0	0    	 	0.0	0	118.76072949986	118.860651499825	0.099921999964863
101118	100	196	stimuli\nonmovArt\mug\nma_mug02.jpg              	1	3	1	nma_mug02.jpg        	nonmovArt	4	mug       	26	mug02       	261	not_alive	0	still	0	artefact	0	n	0	0    	 	0.0	0	118.91073609981702	119.01066619996	0.0999301001429557
101268	100	197	stimuli\movNat\river\mn_river04.jpg              	1	3	1	mn_river04.jpg       	movNat   	3	river     	29	river04     	293	not_alive	0	moves	1	natural 	1	n	0	0    	 	0.0	0	119.060729999794	119.160639799898	0.0999098001047968
101418	100	198	stimuli\movArt\helicopter\ma_helicopter05.jpg    	1	3	1	ma_helicopter05.jpg  	movArt   	2	helicopter	19	helicopter05	194	not_alive	0	moves	1	artefact	0	n	0	0    	 	0.0	0	119.210741499905	119.31063229986499	0.0998907999601215
101568	100	199	stimuli\plant2\palmtree\plant_palmtree01.jpg     	1	3	1	plant_palmtree01.jpg 	plant2   	7	palmtree  	27	palmtree01  	270	alive    	1	still	0	natural 	1	n	0	0    	 	0.0	0	119.360749499872	119.46064429986299	0.0998947999905794
101718	100	200	stimuli\animals2\whale\animal_whale04.jpg        	1	3	1	animal_whale04.jpg   	animals2 	1	whale     	39	whale04     	393	alive    	1	moves	1	natural 	1	n	0	0    	 	0.0	0	119.510761599988	119.610636899946	0.0998752999585122
101868	100	201	stimuli\nonmovNat\rock\nmn_rock02.jpg            	1	3	1	nmn_rock02.jpg       	nonmovNat	5	rock      	30	rock02      	301	not_alive	0	still	0	natural 	1	n	0	0    	 	0.0	0	119.660738099832	119.760655499995	0.099917400162667
102018	100	202	stimuli\nonmovArt\clothespeg\nma_clothespeg05.jpg	1	3	1	nma_clothespeg05.jpg 	nonmovArt	4	clothespeg	8	clothespeg05	84	not_alive	0	still	0	artefact	0	n	0	0    	 	0.0	0	119.81073119980302	119.910685800016	0.0999546002130955
102168	100	203	stimuli\animals2\pigeon\animal_pigeon04.jpg      	1	3	1	animal_pigeon04.jpg  	animals2 	1	pigeon    	28	pigeon04    	283	alive    	1	moves	1	natural 	1	n	0	0    	 	0.0	0	119.96081859991001	120.060697800014	0.09987920010462402
102318	100	204	stimuli\nonmovNat\rock\nmn_rock05.jpg            	1	3	1	nmn_rock05.jpg       	nonmovNat	5	rock      	30	rock05      	304	not_alive	0	still	0	natural 	1	n	0	0    	 	0.0	0	120.110777999973	120.210631299997	0.0998533000238239
102468	100	205	stimuli\plant2\lemontree\plant_lemontree08.jpg   	1	3	1	plant_lemontree08.jpg	plant2   	7	lemontree 	22	lemontree08 	227	alive    	1	still	0	natural 	1	n	0	0    	 	0.0	0	120.260755299823	120.360618099803	0.0998627999797463
102618	100	206	stimuli\movArt\helicopter\ma_helicopter05.jpg    	1	3	1	ma_helicopter05.jpg  	movArt   	2	helicopter	19	helicopter05	194	not_alive	0	moves	1	artefact	0	n	0	0    	 	0.0	0	120.410776600009	120.510618999833	0.0998423998244106
102768	100	207	stimuli\animals\dog\animal_dog06.jpg             	1	3	1	animal_dog06.jpg     	animals  	0	dog       	11	dog06       	115	alive    	1	moves	1	natural 	1	n	0	0    	 	0.0	0	120.560707799857	120.660644899821	0.0999370999634266
102918	100	208	stimuli\movArt\train\ma_train09.jpg              	1	3	1	ma_train09.jpg       	movArt   	2	train     	34	train09     	348	not_alive	0	moves	1	artefact	0	n	0	0    	 	0.0	0	120.71073900000201	120.810626199935	0.0998871999327093
103068	100	209	stimuli\plant\cactus\plant_cactus05.jpg          	1	3	1	plant_cactus05.jpg   	plant    	6	cactus    	4	cactus05    	44	alive    	1	still	0	natural 	1	n	1	0    	 	0.0	0	120.860736999894	120.960593499942	0.0998565000481903
103218	100	210	stimuli\nonmovArt\bench\nma_bench08.jpg          	1	3	1	nma_bench08.jpg      	nonmovArt	4	bench     	1	bench08     	17	not_alive	0	still	0	artefact	0	n	0	1    	f	0.258757299976423	1	121.010737199802	121.110626599984	0.0998894001822918
103368	100	211	stimuli\plant\vine\plant_vine08.jpg              	1	3	1	plant_vine08.jpg     	plant    	6	vine      	36	vine08      	367	alive    	1	still	0	natural 	1	n	0	0    	 	0.0	0	121.160700500011	121.26062139985201	0.0999208998400718
103518	100	212	stimuli\nonmovArt\lock\nma_lock07.jpg            	1	3	1	nma_lock07.jpg       	nonmovArt	4	lock      	24	lock07      	246	not_alive	0	still	0	artefact	0	n	0	0    	 	0.0	0	121.3107439999	121.410613999935	0.0998700000345707
103668	100	213	stimuli\nonmovArt\bench\nma_bench09.jpg          	1	3	1	nma_bench09.jpg      	nonmovArt	4	bench     	1	bench09     	18	not_alive	0	still	0	artefact	0	n	0	0    	 	0.0	0	121.460744199809	121.56059949984801	0.0998553000390529
103818	100	214	stimuli\plant2\clover\plant_clover04.jpg         	1	3	1	plant_clover04.jpg   	plant2   	7	clover    	9	clover04    	93	alive    	1	still	0	natural 	1	n	0	0    	 	0.0	0	121.610720199998	121.71063439990401	0.09991419990547
103968	100	215	stimuli\nonmovNat\sand\nmn_sand06.jpg            	1	3	1	nmn_sand06.jpg       	nonmovNat	5	sand      	31	sand06      	315	not_alive	0	still	0	natural 	1	n	0	0    	 	0.0	0	121.760699199978	121.86062449985201	0.0999252998735755
104118	100	216	stimuli\plant\flower\plant_flower10.jpg          	1	3	1	plant_flower10.jpg   	plant    	6	flower    	16	flower10    	169	alive    	1	still	0	natural 	1	n	0	0    	 	0.0	0	121.910716400016	122.01063649985001	0.0999200998339802
104268	100	217	stimuli\movNat\fire\mn_fire03.jpg                	1	3	1	mn_fire03.jpg        	movNat   	3	fire      	15	fire03      	152	not_alive	0	moves	1	natural 	1	n	0	0    	 	0.0	0	122.06094899983101	122.16059769992701	0.0996487000957131
104418	100	218	stimuli\plant\grass\plant_grass10.jpg            	1	3	1	plant_grass10.jpg    	plant    	6	grass     	17	grass10     	179	alive    	1	still	0	natural 	1	n	0	0    	 	0.0	0	122.210693300003	122.310610399814	0.0999170998111367
104568	100	219	stimuli\animals\dolphin\animal_dolphin10.jpg     	1	3	1	animal_dolphin10.jpg 	animals  	0	dolphin   	12	dolphin10   	129	alive    	1	moves	1	natural 	1	n	0	0    	 	0.0	0	122.36058809980699	122.460650899913	0.100062800105661
104718	100	220	stimuli\plant2\fern\plant_fern10.jpg             	1	3	1	plant_fern10.jpg     	plant2   	7	fern      	14	fern10      	149	alive    	1	still	0	natural 	1	n	1	0    	 	0.0	0	122.510746299988	122.610601399792	0.0998550998046994
104868	100	221	stimuli\plant\vine\plant_vine08.jpg              	1	3	1	plant_vine08.jpg     	plant    	6	vine      	36	vine08      	367	alive    	1	still	0	natural 	1	n	0	0    	 	0.0	0	122.660698599881	122.76063429983299	0.0999356999527663
105018	100	222	stimuli\nonmovArt\lock\nma_lock07.jpg            	1	3	1	nma_lock07.jpg       	nonmovArt	4	lock      	24	lock07      	246	not_alive	0	still	0	artefact	0	n	0	1    	f	0.292026299983263	1	122.810726800002	122.910614499822	0.0998876998201012
105168	100	223	stimuli\nonmovNat\sand\nmn_sand09.jpg            	1	3	1	nmn_sand09.jpg       	nonmovNat	5	sand      	31	sand09      	318	not_alive	0	still	0	natural 	1	n	0	0    	 	0.0	0	122.96071379981001	123.06061859987699	0.0999048000667244
105318	100	224	stimuli\animals\eagle\animal_eagle01.jpg         	1	3	1	animal_eagle01.jpg   	animals  	0	eagle     	13	eagle01     	130	alive    	1	moves	1	natural 	1	n	0	0    	 	0.0	0	123.11071479995701	123.210595799843	0.0998809998854994
105468	100	225	stimuli\animals2\whale\animal_whale03.jpg        	1	3	1	animal_whale03.jpg   	animals2 	1	whale     	39	whale03     	392	alive    	1	moves	1	natural 	1	n	0	0    	 	0.0	0	123.26068539987301	123.360586099792	0.0999006999190896
105618	100	226	stimuli\movNat\fire\mn_fire04.jpg                	1	3	1	mn_fire04.jpg        	movNat   	3	fire      	15	fire04      	153	not_alive	0	moves	1	natural 	1	n	0	0    	 	0.0	0	123.41069719987	123.510595700005	0.0998985001351684
105768	100	227	stimuli\movArt\bus\ma_bus03.jpg                  	1	3	1	ma_bus03.jpg         	movArt   	2	bus       	3	bus03       	32	not_alive	0	moves	1	artefact	0	n	0	0    	 	0.0	0	123.560799199855	123.660588399973	0.0997892001178115
105918	100	228	stimuli\nonmovNat\shell\nmn_shell09.jpg          	1	3	1	nmn_shell09.jpg      	nonmovNat	5	shell     	32	shell09     	328	not_alive	0	still	0	natural 	1	n	0	0    	 	0.0	0	123.710654399823	123.81058499985399	0.0999306000303477
106068	100	229	stimuli\animals\eagle\animal_eagle05.jpg         	1	3	1	animal_eagle05.jpg   	animals  	0	eagle     	13	eagle05     	134	alive    	1	moves	1	natural 	1	n	0	0    	 	0.0	0	123.860696199816	123.960582899861	0.0998867000453174
106218	100	230	stimuli\movNat\waves\mn_waves04.jpg              	1	3	1	mn_waves04.jpg       	movNat   	3	waves     	38	waves04     	383	not_alive	0	moves	1	natural 	1	n	0	0    	 	0.0	0	124.010610299883	124.110680399928	0.100070100044832
106368	100	231	stimuli\nonmovNat\shell\nmn_shell10.jpg          	1	3	1	nmn_shell10.jpg      	nonmovNat	5	shell     	32	shell10     	329	not_alive	0	still	0	natural 	1	n	0	0    	 	0.0	0	124.160711799981	124.26059699989901	0.0998851999174803
106518	100	232	stimuli\movNat\hotspring\mn_hotspring03.jpg      	1	3	1	mn_hotspring03.jpg   	movNat   	3	hotspring 	21	hotspring03 	212	not_alive	0	moves	1	natural 	1	n	0	0    	 	0.0	0	124.31070129992399	124.41059599979799	0.0998946998734027
106668	100	233	stimuli\nonmovNat\crystal\nmn_crystal04.jpg      	1	3	1	nmn_crystal04.jpg    	nonmovNat	5	crystal   	10	crystal04   	103	not_alive	0	still	0	natural 	1	n	0	0    	 	0.0	0	124.460682199802	124.56056699995001	0.0998848001472652
106818	100	234	stimuli\nonmovNat\cliff\nmn_cliff02.jpg          	1	3	1	nmn_cliff02.jpg      	nonmovNat	5	cliff     	7	cliff02     	71	not_alive	0	still	0	natural 	1	n	0	0    	 	0.0	0	124.610694999807	124.71060310001499	0.0999081002082675
106968	100	235	stimuli\movNat\waterfall\mn_waterfall04.jpg      	1	3	1	mn_waterfall04.jpg   	movNat   	3	waterfall 	37	waterfall04 	373	not_alive	0	moves	1	natural 	1	n	0	0    	 	0.0	0	124.760678199818	124.86057889997	0.0999007001519203
107118	100	236	stimuli\plant2\moss\plant_moss03.jpg             	1	3	1	plant_moss03.jpg     	plant2   	7	moss      	25	moss03      	252	alive    	1	still	0	natural 	1	n	0	0    	 	0.0	0	124.91070369980301	125.01058999984501	0.0998863000422716
107268	100	237	stimuli\plant2\clover\plant_clover08.jpg         	1	3	1	plant_clover08.jpg   	plant2   	7	clover    	9	clover08    	97	alive    	1	still	0	natural 	1	n	0	0    	 	0.0	0	125.060682500014	125.160561199998	0.0998786999844014
107418	100	238	stimuli\nonmovNat\cliff\nmn_cliff09.jpg          	1	3	1	nmn_cliff09.jpg      	nonmovNat	5	cliff     	7	cliff09     	78	not_alive	0	still	0	natural 	1	n	0	1    	f	0.0	0	125.21073900000201	125.310587699991	0.0998486999887973
107568	100	239	stimuli\nonmovArt\mug\nma_mug10.jpg              	1	3	1	nma_mug10.jpg        	nonmovArt	4	mug       	26	mug10       	269	not_alive	0	still	0	artefact	0	n	0	0    	 	0.0	0	125.360670999857	125.460585099878	0.0999141000211238
114235	100	240	stimuli\nonmovArt\clothespeg\nma_clothespeg02.jpg	1	4	1	nma_clothespeg02.jpg 	nonmovArt	4	clothespeg	8	clothespeg02	81	not_alive	0	still	0	artefact	0	n	0	0    	 	0.0	0	132.02731689997	132.127174299909	0.09985739993862801
114385	100	241	stimuli\animals2\whale\animal_whale07.jpg        	1	4	1	animal_whale07.jpg   	animals2 	1	whale     	39	whale07     	396	alive    	1	moves	1	natural 	1	n	0	0    	 	0.0	0	132.177278099814	132.27717659995	0.0998985001351684
114535	100	242	stimuli\animals\cat\animal_cat01.jpg             	1	4	1	animal_cat01.jpg     	animals  	0	cat       	6	cat01       	60	alive    	1	moves	1	natural 	1	n	0	0    	 	0.0	0	132.327271299902	132.42717699986	0.0999056999571621
114685	100	243	stimuli\plant2\fern\plant_fern06.jpg             	1	4	1	plant_fern06.jpg     	plant2   	7	fern      	14	fern06      	145	alive    	1	still	0	natural 	1	n	0	0    	 	0.0	0	132.477282000007	132.5771945999	0.0999125998932868
114835	100	244	stimuli\animals2\whale\animal_whale06.jpg        	1	4	1	animal_whale06.jpg   	animals2 	1	whale     	39	whale06     	395	alive    	1	moves	1	natural 	1	n	0	0    	 	0.0	0	132.62727029994102	132.727173899999	0.09990360005758699
114985	100	245	stimuli\plant2\moss\plant_moss10.jpg             	1	4	1	plant_moss10.jpg     	plant2   	7	moss      	25	moss10      	259	alive    	1	still	0	natural 	1	n	0	0    	 	0.0	0	132.777246800018	132.877179299947	0.0999324999283999
115135	100	246	stimuli\plant\vine\plant_vine09.jpg              	1	4	1	plant_vine09.jpg     	plant    	6	vine      	36	vine09      	368	alive    	1	still	0	natural 	1	n	0	0    	 	0.0	0	132.927272100002	133.027179799974	0.0999076999723911
115285	100	247	stimuli\plant\cactus\plant_cactus04.jpg          	1	4	1	plant_cactus04.jpg   	plant    	6	cactus    	4	cactus04    	43	alive    	1	still	0	natural 	1	n	0	0    	 	0.0	0	133.07728149998002	133.1771691998	0.0998876998201012
115435	100	248	stimuli\nonmovNat\rock\nmn_rock10.jpg            	1	4	1	nmn_rock10.jpg       	nonmovNat	5	rock      	30	rock10      	309	not_alive	0	still	0	natural 	1	n	0	0    	 	0.0	0	133.22726719989402	133.32716779992901	0.0999006000347435
115585	100	249	stimuli\movNat\river\mn_river10.jpg              	1	4	1	mn_river10.jpg       	movNat   	3	river     	29	river10     	299	not_alive	0	moves	1	natural 	1	n	0	0    	 	0.0	0	133.377260199981	133.477025899803	0.0997656998224556
115735	100	250	stimuli\movNat\hotspring\mn_hotspring06.jpg      	1	4	1	mn_hotspring06.jpg   	movNat   	3	hotspring 	21	hotspring06 	215	not_alive	0	moves	1	natural 	1	n	0	0    	 	0.0	0	133.527278599795	133.627260699868	0.0999821000732481
115885	100	251	stimuli\plant2\moss\plant_moss05.jpg             	1	4	1	plant_moss05.jpg     	plant2   	7	moss      	25	moss05      	254	alive    	1	still	0	natural 	1	n	0	0    	 	0.0	0	133.67744189989799	133.777247999795	0.0998060998972505
116035	100	252	stimuli\movArt\car\ma_car08.jpg                  	1	4	1	ma_car08.jpg         	movArt   	2	car       	5	car08       	57	not_alive	0	moves	1	artefact	0	n	0	0    	 	0.0	0	133.827282299986	133.92718150001002	0.0998992000240832
116185	100	253	stimuli\animals\dolphin\animal_dolphin06.jpg     	1	4	1	animal_dolphin06.jpg 	animals  	0	dolphin   	12	dolphin06   	125	alive    	1	moves	1	natural 	1	n	0	0    	 	0.0	0	133.977255999809	134.077155799838	0.0998998000286519
116335	100	254	stimuli\nonmovNat\crystal\nmn_crystal05.jpg      	1	4	1	nmn_crystal05.jpg    	nonmovNat	5	crystal   	10	crystal05   	104	not_alive	0	still	0	natural 	1	n	0	0    	 	0.0	0	134.127252899809	134.227165799821	0.0999129000119865
116485	100	255	stimuli\movNat\hotspring\mn_hotspring03.jpg      	1	4	1	mn_hotspring03.jpg   	movNat   	3	hotspring 	21	hotspring03 	212	not_alive	0	moves	1	natural 	1	n	0	0    	 	0.0	0	134.277289499994	134.377194299828	0.0999047998338937
116635	100	256	stimuli\movNat\fire\mn_fire03.jpg                	1	4	1	mn_fire03.jpg        	movNat   	3	fire      	15	fire03      	152	not_alive	0	moves	1	natural 	1	n	0	0    	 	0.0	0	134.427264099941	134.52715769992201	0.0998935999814421
116785	100	257	stimuli\movArt\boat\ma_boat08.jpg                	1	4	1	ma_boat08.jpg        	movArt   	2	boat      	2	boat08      	27	not_alive	0	moves	1	artefact	0	n	0	0    	 	0.0	0	134.577284599887	134.67718499991997	0.0999004000332206
116935	100	258	stimuli\movArt\train\ma_train05.jpg              	1	4	1	ma_train05.jpg       	movArt   	2	train     	34	train05     	344	not_alive	0	moves	1	artefact	0	n	0	0    	 	0.0	0	134.727265399881	134.827154199826	0.0998887999448925
117085	100	259	stimuli\nonmovArt\bench\nma_bench01.jpg          	1	4	1	nma_bench01.jpg      	nonmovArt	4	bench     	1	bench01     	10	not_alive	0	still	0	artefact	0	n	0	0    	 	0.0	0	134.87725709984102	134.977177499793	0.0999203999526798
117235	100	260	stimuli\movArt\boat\ma_boat07.jpg                	1	4	1	ma_boat07.jpg        	movArt   	2	boat      	2	boat07      	26	not_alive	0	moves	1	artefact	0	n	0	0    	 	0.0	0	135.027263599914	135.127172099892	0.0999084999784827
117385	100	261	stimuli\plant\vine\plant_vine10.jpg              	1	4	1	plant_vine10.jpg     	plant    	6	vine      	36	vine10      	369	alive    	1	still	0	natural 	1	n	0	0    	 	0.0	0	135.17724689981	135.27715559978998	0.0999086999800056
117535	100	262	stimuli\plant2\moss\plant_moss06.jpg             	1	4	1	plant_moss06.jpg     	plant2   	7	moss      	25	moss06      	255	alive    	1	still	0	natural 	1	n	0	0    	 	0.0	0	135.327283799881	135.427221399965	0.0999376000836491
117685	100	263	stimuli\animals2\lemur\animal_lemur07.jpg        	1	4	1	animal_lemur07.jpg   	animals2 	1	lemur     	23	lemur07     	236	alive    	1	moves	1	natural 	1	n	1	0    	 	0.0	0	135.47743669990498	135.577187699964	0.0997510000597685
117835	100	264	stimuli\animals\dolphin\animal_dolphin01.jpg     	1	4	1	animal_dolphin01.jpg 	animals  	0	dolphin   	12	dolphin01   	120	alive    	1	moves	1	natural 	1	n	0	1    	f	0.25307799992151603	1	135.627281699795	135.727140799863	0.099859100067988
117985	100	265	stimuli\movNat\waterfall\mn_waterfall02.jpg      	1	4	1	mn_waterfall02.jpg   	movNat   	3	waterfall 	37	waterfall02 	371	not_alive	0	moves	1	natural 	1	n	0	0    	 	0.0	0	135.77723869983998	135.877147199819	0.0999084999784827
118135	100	266	stimuli\animals\dog\animal_dog02.jpg             	1	4	1	animal_dog02.jpg     	animals  	0	dog       	11	dog02       	111	alive    	1	moves	1	natural 	1	n	0	0    	 	0.0	0	135.927246299805	136.02714169979998	0.0998953999951481
118285	100	267	stimuli\nonmovArt\headphones\nma_headphones08.jpg	1	4	1	nma_headphones08.jpg 	nonmovArt	4	headphones	18	headphones08	187	not_alive	0	still	0	artefact	0	n	0	0    	 	0.0	0	136.07724309992	136.177170899929	0.0999278000090271
118435	100	268	stimuli\nonmovNat\crystal\nmn_crystal02.jpg      	1	4	1	nmn_crystal02.jpg    	nonmovNat	5	crystal   	10	crystal02   	101	not_alive	0	still	0	natural 	1	n	0	0    	 	0.0	0	136.22722949995702	136.32717119995502	0.0999416999984532
118585	100	269	stimuli\nonmovArt\mug\nma_mug10.jpg              	1	4	1	nma_mug10.jpg        	nonmovArt	4	mug       	26	mug10       	269	not_alive	0	still	0	artefact	0	n	0	0    	 	0.0	0	136.377255999949	136.477176300017	0.0999203000683337
118735	100	270	stimuli\movNat\river\mn_river01.jpg              	1	4	1	mn_river01.jpg       	movNat   	3	river     	29	river01     	290	not_alive	0	moves	1	natural 	1	n	0	0    	 	0.0	0	136.52718579978702	136.62713319994498	0.0999474001582712
118885	100	271	stimuli\nonmovNat\cliff\nmn_cliff05.jpg          	1	4	1	nmn_cliff05.jpg      	nonmovNat	5	cliff     	7	cliff05     	74	not_alive	0	still	0	natural 	1	n	0	0    	 	0.0	0	136.67722189985201	136.777120899875	0.0998990000225603
119035	100	272	stimuli\nonmovArt\lock\nma_lock03.jpg            	1	4	1	nma_lock03.jpg       	nonmovArt	4	lock      	24	lock03      	242	not_alive	0	still	0	artefact	0	n	0	0    	 	0.0	0	136.827234699856	136.927132199984	0.0998975001275539
119185	100	273	stimuli\nonmovArt\clothespeg\nma_clothespeg03.jpg	1	4	1	nma_clothespeg03.jpg 	nonmovArt	4	clothespeg	8	clothespeg03	82	not_alive	0	still	0	artefact	0	n	0	0    	 	0.0	0	136.977227599826	137.077142999973	0.09991540014743801
119335	100	274	stimuli\movNat\waves\mn_waves08.jpg              	1	4	1	mn_waves08.jpg       	movNat   	3	waves     	38	waves08     	387	not_alive	0	moves	1	natural 	1	n	0	0    	 	0.0	0	137.127230899874	137.22721879999202	0.0999879001174122
119485	100	275	stimuli\plant\flower\plant_flower02.jpg          	1	4	1	plant_flower02.jpg   	plant    	6	flower    	16	flower02    	161	alive    	1	still	0	natural 	1	n	0	0    	 	0.0	0	137.27732559991998	137.377126900014	0.0998013000935316
119635	100	276	stimuli\nonmovArt\mug\nma_mug05.jpg              	1	4	1	nma_mug05.jpg        	nonmovArt	4	mug       	26	mug05       	264	not_alive	0	still	0	artefact	0	n	0	0    	 	0.0	0	137.427298299968	137.52712589991302	0.0998275999445468
119785	100	277	stimuli\animals\dog\animal_dog09.jpg             	1	4	1	animal_dog09.jpg     	animals  	0	dog       	11	dog09       	118	alive    	1	moves	1	natural 	1	n	0	0    	 	0.0	0	137.577216699952	137.677132699871	0.0999159999191761
119935	100	278	stimuli\movNat\waterfall\mn_waterfall08.jpg      	1	4	1	mn_waterfall08.jpg   	movNat   	3	waterfall 	37	waterfall08 	377	not_alive	0	moves	1	natural 	1	n	0	0    	 	0.0	0	137.727216999978	137.82712159981	0.0999045998323708
120085	100	279	stimuli\plant2\clover\plant_clover06.jpg         	1	4	1	plant_clover06.jpg   	plant2   	7	clover    	9	clover06    	95	alive    	1	still	0	natural 	1	n	0	0    	 	0.0	0	137.877238699933	137.977142399875	0.0999036999419331
120235	100	280	stimuli\plant2\fern\plant_fern02.jpg             	1	4	1	plant_fern02.jpg     	plant2   	7	fern      	14	fern02      	141	alive    	1	still	0	natural 	1	n	0	0    	 	0.0	0	138.027222699951	138.127114699921	0.0998919999692589
120385	100	281	stimuli\animals2\lemur\animal_lemur05.jpg        	1	4	1	animal_lemur05.jpg   	animals2 	1	lemur     	23	lemur05     	234	alive    	1	moves	1	natural 	1	n	0	0    	 	0.0	0	138.177197600016	138.277120899875	0.0999232998583465
120535	100	282	stimuli\movArt\car\ma_car05.jpg                  	1	4	1	ma_car05.jpg         	movArt   	2	car       	5	car05       	54	not_alive	0	moves	1	artefact	0	n	1	0    	 	0.0	0	138.327210699907	138.427116899984	0.0999062000773847
120685	100	283	stimuli\plant\tree\plant_tree08.jpg              	1	4	1	plant_tree08.jpg     	plant    	6	tree      	35	tree08      	357	alive    	1	still	0	natural 	1	n	0	0    	 	0.0	0	138.47720019985002	138.57712119980698	0.0999209999572485
120835	100	284	stimuli\animals\dolphin\animal_dolphin09.jpg     	1	4	1	animal_dolphin09.jpg 	animals  	0	dolphin   	12	dolphin09   	128	alive    	1	moves	1	natural 	1	n	0	1    	f	0.30018140003085103	1	138.62720719981002	138.727136299945	0.0999291001353412
120985	100	285	stimuli\animals2\tiger\animal_tiger05.jpg        	1	4	1	animal_tiger05.jpg   	animals2 	1	tiger     	33	tiger05     	334	alive    	1	moves	1	natural 	1	n	0	0    	 	0.0	0	138.77719169994802	138.877119099954	0.0999274000059813
121135	100	286	stimuli\movArt\helicopter\ma_helicopter06.jpg    	1	4	1	ma_helicopter06.jpg  	movArt   	2	helicopter	19	helicopter06	195	not_alive	0	moves	1	artefact	0	n	0	0    	 	0.0	0	138.92720909998698	139.027203099802	0.0999939998146146
121285	100	287	stimuli\plant\flower\plant_flower07.jpg          	1	4	1	plant_flower07.jpg   	plant    	6	flower    	16	flower07    	166	alive    	1	still	0	natural 	1	n	0	0    	 	0.0	0	139.077237799996	139.17710500001002	0.0998672000132501
121435	100	288	stimuli\animals\horse\animal_horse07.jpg         	1	4	1	animal_horse07.jpg   	animals  	0	horse     	20	horse07     	206	alive    	1	moves	1	natural 	1	n	0	0    	 	0.0	0	139.22722069988998	139.327112099854	0.0998913999646902
121585	100	289	stimuli\nonmovNat\sand\nmn_sand07.jpg            	1	4	1	nmn_sand07.jpg       	nonmovNat	5	sand      	31	sand07      	316	not_alive	0	still	0	natural 	1	n	0	0    	 	0.0	0	139.37720119999702	139.47709960001498	0.0998984000179916
121735	100	290	stimuli\nonmovNat\cliff\nmn_cliff01.jpg          	1	4	1	nmn_cliff01.jpg      	nonmovNat	5	cliff     	7	cliff01     	70	not_alive	0	still	0	natural 	1	n	0	0    	 	0.0	0	139.52720149978998	139.627101899823	0.0999004000332206
121885	100	291	stimuli\nonmovNat\sand\nmn_sand06.jpg            	1	4	1	nmn_sand06.jpg       	nonmovNat	5	sand      	31	sand06      	315	not_alive	0	still	0	natural 	1	n	1	0    	 	0.0	0	139.677200399805	139.777084999951	0.0998846001457423
122035	100	292	stimuli\animals2\bee\animal_bee09.jpg            	1	4	1	animal_bee09.jpg     	animals2 	1	bee       	0	bee09       	8	alive    	1	moves	1	natural 	1	n	0	0    	 	0.0	0	139.8272119998	139.92711509997	0.0999031001701951
122185	100	293	stimuli\movArt\bus\ma_bus10.jpg                  	1	4	1	ma_bus10.jpg         	movArt   	2	bus       	3	bus10       	39	not_alive	0	moves	1	artefact	0	n	0	1    	f	0.39934740005992303	1	139.97720419988002	140.076298199827	0.0990939999464899
122334	100	294	stimuli\plant\grass\plant_grass10.jpg            	1	4	1	plant_grass10.jpg    	plant    	6	grass     	17	grass10     	179	alive    	1	still	0	natural 	1	n	0	0    	 	0.0	0	140.126339899842	140.226316899993	0.0999770001508295
122484	100	295	stimuli\plant\vine\plant_vine10.jpg              	1	4	1	plant_vine10.jpg     	plant    	6	vine      	36	vine10      	369	alive    	1	still	0	natural 	1	n	0	0    	 	0.0	0	140.276325599989	140.376315600006	0.0999900000169873
122634	100	296	stimuli\animals2\pigeon\animal_pigeon06.jpg      	1	4	1	animal_pigeon06.jpg  	animals2 	1	pigeon    	28	pigeon06    	285	alive    	1	moves	1	natural 	1	n	0	0    	 	0.0	0	140.42632439988702	140.526317599928	0.0999932000413537
122784	100	297	stimuli\nonmovNat\sand\nmn_sand07.jpg            	1	4	1	nmn_sand07.jpg       	nonmovNat	5	sand      	31	sand07      	316	not_alive	0	still	0	natural 	1	n	0	0    	 	0.0	0	140.57632220001003	140.676311199786	0.0999889997765422
122934	100	298	stimuli\movNat\waves\mn_waves08.jpg              	1	4	1	mn_waves08.jpg       	movNat   	3	waves     	38	waves08     	387	not_alive	0	moves	1	natural 	1	n	0	0    	 	0.0	0	140.726321499795	140.826308399905	0.0999869001097977
123084	100	299	stimuli\nonmovNat\rock\nmn_rock02.jpg            	1	4	1	nmn_rock02.jpg       	nonmovNat	5	rock      	30	rock02      	301	not_alive	0	still	0	natural 	1	n	0	0    	 	0.0	0	140.87631889991502	140.97630709991802	0.0999882000032812
123234	100	300	stimuli\animals\eagle\animal_eagle08.jpg         	1	4	1	animal_eagle08.jpg   	animals  	0	eagle     	13	eagle08     	137	alive    	1	moves	1	natural 	1	n	0	0    	 	0.0	0	141.02631779993	141.126304699806	0.099986899876967
123384	100	301	stimuli\plant\grass\plant_grass08.jpg            	1	4	1	plant_grass08.jpg    	plant    	6	grass     	17	grass08     	177	alive    	1	still	0	natural 	1	n	0	0    	 	0.0	0	141.17631739983298	141.27630919986402	0.0999918000306934
123534	100	302	stimuli\nonmovArt\lock\nma_lock08.jpg            	1	4	1	nma_lock08.jpg       	nonmovArt	4	lock      	24	lock08      	247	not_alive	0	still	0	artefact	0	n	0	0    	 	0.0	0	141.326316099847	141.426302799955	0.0999867001082748
123684	100	303	stimuli\animals\eagle\animal_eagle06.jpg         	1	4	1	animal_eagle06.jpg   	animals  	0	eagle     	13	eagle06     	135	alive    	1	moves	1	natural 	1	n	0	0    	 	0.0	0	141.476315499982	141.576301599853	0.0999860998708754
123834	100	304	stimuli\movNat\fire\mn_fire09.jpg                	1	4	1	mn_fire09.jpg        	movNat   	3	fire      	15	fire09      	158	not_alive	0	moves	1	natural 	1	n	0	0    	 	0.0	0	141.626310199965	141.72630209988	0.0999918999150395
123984	100	305	stimuli\animals\eagle\animal_eagle09.jpg         	1	4	1	animal_eagle09.jpg   	animals  	0	eagle     	13	eagle09     	138	alive    	1	moves	1	natural 	1	n	0	0    	 	0.0	0	141.77630599984	141.876299799886	0.0999938000459224
124134	100	306	stimuli\nonmovArt\lock\nma_lock04.jpg            	1	4	1	nma_lock04.jpg       	nonmovArt	4	lock      	24	lock04      	243	not_alive	0	still	0	artefact	0	n	0	0    	 	0.0	0	141.92630829988002	142.026297600009	0.0999893001280725
124284	100	307	stimuli\nonmovNat\shell\nmn_shell02.jpg          	1	4	1	nmn_shell02.jpg      	nonmovNat	5	shell     	32	shell02     	321	not_alive	0	still	0	natural 	1	n	0	0    	 	0.0	0	142.076305499999	142.176295199897	0.0999896998982876
124434	100	308	stimuli\animals2\tiger\animal_tiger03.jpg        	1	4	1	animal_tiger03.jpg   	animals2 	1	tiger     	33	tiger03     	332	alive    	1	moves	1	natural 	1	n	0	0    	 	0.0	0	142.226305399789	142.326293899911	0.0999885001219809
124584	100	309	stimuli\plant2\lemontree\plant_lemontree06.jpg   	1	4	1	plant_lemontree06.jpg	plant2   	7	lemontree 	22	lemontree06 	225	alive    	1	still	0	natural 	1	n	0	0    	 	0.0	0	142.376303699799	142.476284099976	0.0999804001767188
124734	100	310	stimuli\animals\horse\animal_horse01.jpg         	1	4	1	animal_horse01.jpg   	animals  	0	horse     	20	horse01     	200	alive    	1	moves	1	natural 	1	n	0	0    	 	0.0	0	142.526338099968	142.626292699948	0.0999545999802649
124884	100	311	stimuli\animals2\whale\animal_whale10.jpg        	1	4	1	animal_whale10.jpg   	animals2 	1	whale     	39	whale10     	399	alive    	1	moves	1	natural 	1	n	0	0    	 	0.0	0	142.676304899855	142.776280899998	0.099976000143215
125034	100	312	stimuli\plant2\clover\plant_clover01.jpg         	1	4	1	plant_clover01.jpg   	plant2   	7	clover    	9	clover01    	90	alive    	1	still	0	natural 	1	n	0	0    	 	0.0	0	142.826298999833	142.926289399853	0.0999904000200331
125184	100	313	stimuli\nonmovNat\cliff\nmn_cliff02.jpg          	1	4	1	nmn_cliff02.jpg      	nonmovNat	5	cliff     	7	cliff02     	71	not_alive	0	still	0	natural 	1	n	0	0    	 	0.0	0	142.97629999998	143.076288899872	0.099988899892196
125334	100	314	stimuli\plant2\palmtree\plant_palmtree06.jpg     	1	4	1	plant_palmtree06.jpg 	plant2   	7	palmtree  	27	palmtree06  	275	alive    	1	still	0	natural 	1	n	0	0    	 	0.0	0	143.126299900003	143.226284399861	0.0999844998586922
125484	100	315	stimuli\movArt\helicopter\ma_helicopter07.jpg    	1	4	1	ma_helicopter07.jpg  	movArt   	2	helicopter	19	helicopter07	196	not_alive	0	moves	1	artefact	0	n	0	0    	 	0.0	0	143.276296600001	143.37628500000602	0.0999884000048041
125634	100	316	stimuli\plant\tree\plant_tree09.jpg              	1	4	1	plant_tree09.jpg     	plant    	6	tree      	35	tree09      	358	alive    	1	still	0	natural 	1	n	0	0    	 	0.0	0	143.426298999926	143.526282199891	0.0999831999652087
125784	100	317	stimuli\animals2\bee\animal_bee04.jpg            	1	4	1	animal_bee04.jpg     	animals2 	1	bee       	0	bee04       	3	alive    	1	moves	1	natural 	1	n	0	0    	 	0.0	0	143.576292299898	143.67628289991998	0.099990600021556
125934	100	318	stimuli\nonmovArt\bench\nma_bench10.jpg          	1	4	1	nma_bench10.jpg      	nonmovArt	4	bench     	1	bench10     	19	not_alive	0	still	0	artefact	0	n	0	0    	 	0.0	0	143.726291899802	143.826281799935	0.0999899001326412
126084	100	319	stimuli\movNat\waves\mn_waves02.jpg              	1	4	1	mn_waves02.jpg       	movNat   	3	waves     	38	waves02     	381	not_alive	0	moves	1	natural 	1	n	0	0    	 	0.0	0	143.876288499916	143.976280999836	0.0999924999196082
133817	100	320	stimuli\animals\horse\animal_horse07.jpg         	1	5	1	animal_horse07.jpg   	animals  	0	horse     	20	horse07     	206	alive    	1	moves	1	natural 	1	n	0	0    	 	0.0	0	151.60955729987498	151.709540799959	0.0999835000839084
133967	100	321	stimuli\plant\tree\plant_tree07.jpg              	1	5	1	plant_tree07.jpg     	plant    	6	tree      	35	tree07      	356	alive    	1	still	0	natural 	1	n	0	0    	 	0.0	0	151.759545199806	151.859543500002	0.0999983001966029
134117	100	322	stimuli\movArt\bus\ma_bus08.jpg                  	1	5	1	ma_bus08.jpg         	movArt   	2	bus       	3	bus08       	37	not_alive	0	moves	1	artefact	0	n	0	0    	 	0.0	0	151.909537399886	152.010437499965	0.10090010007843402
134268	100	323	stimuli\plant\grass\plant_grass10.jpg            	1	5	1	plant_grass10.jpg    	plant    	6	grass     	17	grass10     	179	alive    	1	still	0	natural 	1	n	0	0    	 	0.0	0	152.06057659978998	152.160315499874	0.0997389000840485
134418	100	324	stimuli\animals\cat\animal_cat03.jpg             	1	5	1	animal_cat03.jpg     	animals  	0	cat       	6	cat03       	62	alive    	1	moves	1	natural 	1	n	0	0    	 	0.0	0	152.210438399808	152.310352299828	0.099913900019601
134568	100	325	stimuli\nonmovNat\shell\nmn_shell07.jpg          	1	5	1	nmn_shell07.jpg      	nonmovNat	5	shell     	32	shell07     	326	not_alive	0	still	0	natural 	1	n	0	0    	 	0.0	0	152.360441699857	152.460309099872	0.09986740001477301
134718	100	326	stimuli\nonmovArt\bench\nma_bench01.jpg          	1	5	1	nma_bench01.jpg      	nonmovArt	4	bench     	1	bench01     	10	not_alive	0	still	0	artefact	0	n	0	0    	 	0.0	0	152.51044899993602	152.610319299856	0.0998702999204397
134868	100	327	stimuli\movArt\bus\ma_bus04.jpg                  	1	5	1	ma_bus04.jpg         	movArt   	2	bus       	3	bus04       	33	not_alive	0	moves	1	artefact	0	n	0	0    	 	0.0	0	152.660429899814	152.760328799952	0.0998989001382142
135018	100	328	stimuli\plant2\clover\plant_clover07.jpg         	1	5	1	plant_clover07.jpg   	plant2   	7	clover    	9	clover07    	96	alive    	1	still	0	natural 	1	n	0	0    	 	0.0	0	152.810443099821	152.910323299933	0.0998802001122385
135168	100	329	stimuli\animals2\lemur\animal_lemur04.jpg        	1	5	1	animal_lemur04.jpg   	animals2 	1	lemur     	23	lemur04     	233	alive    	1	moves	1	natural 	1	n	0	0    	 	0.0	0	152.960414199857	153.06033809995301	0.0999239000957459
135318	100	330	stimuli\plant2\palmtree\plant_palmtree03.jpg     	1	5	1	plant_palmtree03.jpg 	plant2   	7	palmtree  	27	palmtree03  	272	alive    	1	still	0	natural 	1	n	0	0    	 	0.0	0	153.110413399991	153.210320099955	0.0999066999647766
135468	100	331	stimuli\animals2\pigeon\animal_pigeon02.jpg      	1	5	1	animal_pigeon02.jpg  	animals2 	1	pigeon    	28	pigeon02    	281	alive    	1	moves	1	natural 	1	n	0	0    	 	0.0	0	153.2604311998	153.360334499972	0.099903300171718
135618	100	332	stimuli\plant\cactus\plant_cactus06.jpg          	1	5	1	plant_cactus06.jpg   	plant    	6	cactus    	4	cactus06    	45	alive    	1	still	0	natural 	1	n	0	0    	 	0.0	0	153.410401899833	153.510320500005	0.0999186001718044
135768	100	333	stimuli\animals2\tiger\animal_tiger08.jpg        	1	5	1	animal_tiger08.jpg   	animals2 	1	tiger     	33	tiger08     	337	alive    	1	moves	1	natural 	1	n	0	0    	 	0.0	0	153.560412099818	153.660321799805	0.0999096999876201
135918	100	334	stimuli\nonmovNat\rock\nmn_rock09.jpg            	1	5	1	nmn_rock09.jpg       	nonmovNat	5	rock      	30	rock09      	308	not_alive	0	still	0	natural 	1	n	0	0    	 	0.0	0	153.710525699891	153.81044529983802	0.0999195999465882
136068	100	335	stimuli\movNat\waterfall\mn_waterfall08.jpg      	1	5	1	mn_waterfall08.jpg   	movNat   	3	waterfall 	37	waterfall08 	377	not_alive	0	moves	1	natural 	1	n	0	0    	 	0.0	0	153.860516799847	153.960311800009	0.0997950001619756
136218	100	336	stimuli\nonmovArt\headphones\nma_headphones10.jpg	1	5	1	nma_headphones10.jpg 	nonmovArt	4	headphones	18	headphones10	189	not_alive	0	still	0	artefact	0	n	0	0    	 	0.0	0	154.010388099821	154.11031569982902	0.0999276000075042
136368	100	337	stimuli\movArt\train\ma_train03.jpg              	1	5	1	ma_train03.jpg       	movArt   	2	train     	34	train03     	342	not_alive	0	moves	1	artefact	0	n	0	0    	 	0.0	0	154.16039490001302	154.260324499803	0.0999295997899025
136518	100	338	stimuli\movArt\helicopter\ma_helicopter06.jpg    	1	5	1	ma_helicopter06.jpg  	movArt   	2	helicopter	19	helicopter06	195	not_alive	0	moves	1	artefact	0	n	0	0    	 	0.0	0	154.310407500016	154.41030529979602	0.0998977997805923
136668	100	339	stimuli\plant2\lemontree\plant_lemontree01.jpg   	1	5	1	plant_lemontree01.jpg	plant2   	7	lemontree 	22	lemontree01 	220	alive    	1	still	0	natural 	1	n	0	0    	 	0.0	0	154.460380899953	154.560293299844	0.0999123998917639
136818	100	340	stimuli\plant2\lemontree\plant_lemontree06.jpg   	1	5	1	plant_lemontree06.jpg	plant2   	7	lemontree 	22	lemontree06 	225	alive    	1	still	0	natural 	1	n	0	0    	 	0.0	0	154.610397799872	154.710305799963	0.0999080000910908
136968	100	341	stimuli\nonmovArt\headphones\nma_headphones02.jpg	1	5	1	nma_headphones02.jpg 	nonmovArt	4	headphones	18	headphones02	181	not_alive	0	still	0	artefact	0	n	0	0    	 	0.0	0	154.760426699882	154.860292400001	0.0998657001182437
137118	100	342	stimuli\animals\cat\animal_cat02.jpg             	1	5	1	animal_cat02.jpg     	animals  	0	cat       	6	cat02       	61	alive    	1	moves	1	natural 	1	n	0	0    	 	0.0	0	154.910395100014	155.010290900012	0.0998957999981939
137268	100	343	stimuli\movArt\boat\ma_boat09.jpg                	1	5	1	ma_boat09.jpg        	movArt   	2	boat      	2	boat09      	28	not_alive	0	moves	1	artefact	0	n	0	0    	 	0.0	0	155.060381799936	155.160302100005	0.0999203000683337
137418	100	344	stimuli\movArt\car\ma_car09.jpg                  	1	5	1	ma_car09.jpg         	movArt   	2	car       	5	car09       	58	not_alive	0	moves	1	artefact	0	n	0	0    	 	0.0	0	155.2104044999	155.31028159987198	0.0998770999722182
137568	100	345	stimuli\movNat\river\mn_river01.jpg              	1	5	1	mn_river01.jpg       	movNat   	3	river     	29	river01     	290	not_alive	0	moves	1	natural 	1	n	1	0    	 	0.0	0	155.360429799883	155.460232999874	0.0998031999915838
137718	100	346	stimuli\plant\flower\plant_flower02.jpg          	1	5	1	plant_flower02.jpg   	plant    	6	flower    	16	flower02    	161	alive    	1	still	0	natural 	1	n	0	0    	 	0.0	0	155.510474500014	155.61034619994498	0.09987169993110001
137868	100	347	stimuli\animals\dog\animal_dog05.jpg             	1	5	1	animal_dog05.jpg     	animals  	0	dog       	11	dog05       	114	alive    	1	moves	1	natural 	1	n	0	1    	f	0.300224000122398	1	155.660426999908	155.760281099938	0.0998541000299155
138018	100	348	stimuli\nonmovNat\shell\nmn_shell03.jpg          	1	5	1	nmn_shell03.jpg      	nonmovNat	5	shell     	32	shell03     	322	not_alive	0	still	0	natural 	1	n	0	0    	 	0.0	0	155.810400799848	155.910289099906	0.0998883000575006
138168	100	349	stimuli\plant2\fern\plant_fern03.jpg             	1	5	1	plant_fern03.jpg     	plant2   	7	fern      	14	fern03      	142	alive    	1	still	0	natural 	1	n	0	0    	 	0.0	0	155.96037479978997	156.060314300004	0.099939500214532
138318	100	350	stimuli\nonmovArt\mug\nma_mug06.jpg              	1	5	1	nma_mug06.jpg        	nonmovArt	4	mug       	26	mug06       	265	not_alive	0	still	0	artefact	0	n	0	0    	 	0.0	0	156.110389499925	156.210274899844	0.0998853999190032
138468	100	351	stimuli\plant\cactus\plant_cactus06.jpg          	1	5	1	plant_cactus06.jpg   	plant    	6	cactus    	4	cactus06    	45	alive    	1	still	0	natural 	1	n	0	0    	 	0.0	0	156.26037069992202	156.360287299845	0.0999165999237448
138618	100	352	stimuli\movNat\hotspring\mn_hotspring07.jpg      	1	5	1	mn_hotspring07.jpg   	movNat   	3	hotspring 	21	hotspring07 	216	not_alive	0	moves	1	natural 	1	n	0	0    	 	0.0	0	156.410388999851	156.510282499949	0.0998935000970959
138768	100	353	stimuli\movArt\train\ma_train07.jpg              	1	5	1	ma_train07.jpg       	movArt   	2	train     	34	train07     	346	not_alive	0	moves	1	artefact	0	n	0	0    	 	0.0	0	156.560364499921	156.66030829981898	0.0999437998980283
138918	100	354	stimuli\nonmovArt\clothespeg\nma_clothespeg09.jpg	1	5	1	nma_clothespeg09.jpg 	nonmovArt	4	clothespeg	8	clothespeg09	88	not_alive	0	still	0	artefact	0	n	0	0    	 	0.0	0	156.710375799797	156.81028699991302	0.0999112001154571
139068	100	355	stimuli\plant2\palmtree\plant_palmtree05.jpg     	1	5	1	plant_palmtree05.jpg 	plant2   	7	palmtree  	27	palmtree05  	274	alive    	1	still	0	natural 	1	n	0	0    	 	0.0	0	156.860404299805	156.960283399792	0.0998790999874472
139218	100	356	stimuli\animals2\bee\animal_bee05.jpg            	1	5	1	animal_bee05.jpg     	animals2 	1	bee       	0	bee05       	4	alive    	1	moves	1	natural 	1	n	0	0    	 	0.0	0	157.010366200004	157.110280799912	0.0999145999085158
139368	100	357	stimuli\animals2\pigeon\animal_pigeon08.jpg      	1	5	1	animal_pigeon08.jpg  	animals2 	1	pigeon    	28	pigeon08    	287	alive    	1	moves	1	natural 	1	n	0	0    	 	0.0	0	157.160386499949	157.260387599934	0.100001099985093
139518	100	358	stimuli\movNat\fire\mn_fire08.jpg                	1	5	1	mn_fire08.jpg        	movNat   	3	fire      	15	fire08      	157	not_alive	0	moves	1	natural 	1	n	0	0    	 	0.0	0	157.310561699793	157.410417899955	0.0998562001623213
139668	100	359	stimuli\nonmovNat\crystal\nmn_crystal07.jpg      	1	5	1	nmn_crystal07.jpg    	nonmovNat	5	crystal   	10	crystal07   	106	not_alive	0	still	0	natural 	1	n	0	0    	 	0.0	0	157.460364599945	157.56027899985202	0.0999143999069929
139818	100	360	stimuli\plant2\palmtree\plant_palmtree06.jpg     	1	5	1	plant_palmtree06.jpg 	plant2   	7	palmtree  	27	palmtree06  	275	alive    	1	still	0	natural 	1	n	0	0    	 	0.0	0	157.610352499876	157.71026219986402	0.0999096999876201
139968	100	361	stimuli\movArt\helicopter\ma_helicopter08.jpg    	1	5	1	ma_helicopter08.jpg  	movArt   	2	helicopter	19	helicopter08	197	not_alive	0	moves	1	artefact	0	n	0	0    	 	0.0	0	157.760376699967	157.860259099863	0.0998823998961597
140118	100	362	stimuli\plant\tree\plant_tree04.jpg              	1	5	1	plant_tree04.jpg     	plant    	6	tree      	35	tree04      	353	alive    	1	still	0	natural 	1	n	0	0    	 	0.0	0	157.910353399813	158.010267799953	0.0999144001398235
140268	100	363	stimuli\plant\grass\plant_grass02.jpg            	1	5	1	plant_grass02.jpg    	plant    	6	grass     	17	grass02     	171	alive    	1	still	0	natural 	1	n	0	0    	 	0.0	0	158.06036789994698	158.16029579984	0.0999278998933732
140418	100	364	stimuli\animals\horse\animal_horse01.jpg         	1	5	1	animal_horse01.jpg   	animals  	0	horse     	20	horse01     	200	alive    	1	moves	1	natural 	1	n	0	0    	 	0.0	0	158.2103565	158.310257599922	0.0999010999221354
140568	100	365	stimuli\animals\dolphin\animal_dolphin07.jpg     	1	5	1	animal_dolphin07.jpg 	animals  	0	dolphin   	12	dolphin07   	126	alive    	1	moves	1	natural 	1	n	0	0    	 	0.0	0	158.360366399866	158.460256599821	0.0998901999555528
140718	100	366	stimuli\nonmovNat\shell\nmn_shell09.jpg          	1	5	1	nmn_shell09.jpg      	nonmovNat	5	shell     	32	shell09     	328	not_alive	0	still	0	natural 	1	n	0	0    	 	0.0	0	158.51035050000098	158.610264199786	0.0999136997852474
140868	100	367	stimuli\animals\eagle\animal_eagle09.jpg         	1	5	1	animal_eagle09.jpg   	animals  	0	eagle     	13	eagle09     	138	alive    	1	moves	1	natural 	1	n	0	0    	 	0.0	0	158.66037960001302	158.760280799819	0.0999011998064816
141018	100	368	stimuli\movNat\hotspring\mn_hotspring08.jpg      	1	5	1	mn_hotspring08.jpg   	movNat   	3	hotspring 	21	hotspring08 	217	not_alive	0	moves	1	natural 	1	n	0	0    	 	0.0	0	158.810352299828	158.910245999927	0.0998937000986188
141168	100	369	stimuli\plant2\lemontree\plant_lemontree04.jpg   	1	5	1	plant_lemontree04.jpg	plant2   	7	lemontree 	22	lemontree04 	223	alive    	1	still	0	natural 	1	n	0	0    	 	0.0	0	158.960391399916	159.060487299925	0.10009590000845499
141318	100	370	stimuli\plant\grass\plant_grass09.jpg            	1	5	1	plant_grass09.jpg    	plant    	6	grass     	17	grass09     	178	alive    	1	still	0	natural 	1	n	0	0    	 	0.0	0	159.110522700008	159.210321199847	0.0997984998393803
141468	100	371	stimuli\movArt\train\ma_train09.jpg              	1	5	1	ma_train09.jpg       	movArt   	2	train     	34	train09     	348	not_alive	0	moves	1	artefact	0	n	1	0    	 	0.0	0	159.260354799917	159.36025729985002	0.0999024999327957
141618	100	372	stimuli\movNat\waterfall\mn_waterfall10.jpg      	1	5	1	mn_waterfall10.jpg   	movNat   	3	waterfall 	37	waterfall10 	379	not_alive	0	moves	1	natural 	1	n	0	1    	f	0.257158800028265	1	159.41036819992598	159.510288299993	0.0999201000668108
141768	100	373	stimuli\movNat\fire\mn_fire10.jpg                	1	5	1	mn_fire10.jpg        	movNat   	3	fire      	15	fire10      	159	not_alive	0	moves	1	natural 	1	n	0	0    	 	0.0	0	159.56035649986	159.660252399975	0.0998959001153707
141918	100	374	stimuli\plant\cactus\plant_cactus09.jpg          	1	5	1	plant_cactus09.jpg   	plant    	6	cactus    	4	cactus09    	48	alive    	1	still	0	natural 	1	n	0	0    	 	0.0	0	159.710352099966	159.810243299929	0.0998911999631673
142068	100	375	stimuli\nonmovNat\rock\nmn_rock02.jpg            	1	5	1	nmn_rock02.jpg       	nonmovNat	5	rock      	30	rock02      	301	not_alive	0	still	0	natural 	1	n	0	0    	 	0.0	0	159.860368499998	159.960286499932	0.09991799993440499
142218	100	376	stimuli\animals\cat\animal_cat08.jpg             	1	5	1	animal_cat08.jpg     	animals  	0	cat       	6	cat08       	67	alive    	1	moves	1	natural 	1	n	0	0    	 	0.0	0	160.010339099914	160.110280999914	0.0999418999999761
142368	100	377	stimuli\nonmovArt\mug\nma_mug10.jpg              	1	5	1	nma_mug10.jpg        	nonmovArt	4	mug       	26	mug10       	269	not_alive	0	still	0	artefact	0	n	0	0    	 	0.0	0	160.16036819992598	160.260266599944	0.0998984000179916
142518	100	378	stimuli\animals2\bee\animal_bee06.jpg            	1	5	1	animal_bee06.jpg     	animals2 	1	bee       	0	bee06       	5	alive    	1	moves	1	natural 	1	n	0	0    	 	0.0	0	160.310331899906	160.410247999942	0.0999161000363528
142668	100	379	stimuli\movNat\river\mn_river08.jpg              	1	5	1	mn_river08.jpg       	movNat   	3	river     	29	river08     	297	not_alive	0	moves	1	natural 	1	n	0	0    	 	0.0	0	160.46034579980198	160.560245899949	0.0999001001473516
142818	100	380	stimuli\nonmovArt\headphones\nma_headphones07.jpg	1	5	1	nma_headphones07.jpg 	nonmovArt	4	headphones	18	headphones07	186	not_alive	0	still	0	artefact	0	n	0	0    	 	0.0	0	160.61051859986	160.710273199948	0.0997546000871807
142968	100	381	stimuli\nonmovArt\lock\nma_lock03.jpg            	1	5	1	nma_lock03.jpg       	nonmovArt	4	lock      	24	lock03      	242	not_alive	0	still	0	artefact	0	n	0	0    	 	0.0	0	160.760405399837	160.86042729998002	0.10002190014347401
143118	100	382	stimuli\movArt\bus\ma_bus07.jpg                  	1	5	1	ma_bus07.jpg         	movArt   	2	bus       	3	bus07       	36	not_alive	0	moves	1	artefact	0	n	0	0    	 	0.0	0	160.910425799899	161.010240099858	0.0998142999596893
143268	100	383	stimuli\animals\eagle\animal_eagle08.jpg         	1	5	1	animal_eagle08.jpg   	animals  	0	eagle     	13	eagle08     	137	alive    	1	moves	1	natural 	1	n	0	0    	 	0.0	0	161.06034339987698	161.160251799971	0.0999084000941366
143418	100	384	stimuli\plant2\palmtree\plant_palmtree07.jpg     	1	5	1	plant_palmtree07.jpg 	plant2   	7	palmtree  	27	palmtree07  	276	alive    	1	still	0	natural 	1	n	0	0    	 	0.0	0	161.210317699937	161.310225299792	0.0999075998552143
143568	100	385	stimuli\animals\dolphin\animal_dolphin02.jpg     	1	5	1	animal_dolphin02.jpg 	animals  	0	dolphin   	12	dolphin02   	121	alive    	1	moves	1	natural 	1	n	1	0    	 	0.0	0	161.36045649996998	161.46023749979202	0.099780999822542
143718	100	386	stimuli\plant\tree\plant_tree05.jpg              	1	5	1	plant_tree05.jpg     	plant    	6	tree      	35	tree05      	354	alive    	1	still	0	natural 	1	n	0	0    	 	0.0	0	161.510324799921	161.610229599988	0.0999048000667244
143868	100	387	stimuli\nonmovNat\sand\nmn_sand04.jpg            	1	5	1	nmn_sand04.jpg       	nonmovNat	5	sand      	31	sand04      	313	not_alive	0	still	0	natural 	1	n	0	1    	f	0.29190319986082597	1	161.66031909990102	161.760258499999	0.0999394000973552
144018	100	388	stimuli\plant2\fern\plant_fern09.jpg             	1	5	1	plant_fern09.jpg     	plant2   	7	fern      	14	fern09      	148	alive    	1	still	0	natural 	1	n	0	0    	 	0.0	0	161.810315300012	161.910247999942	0.0999326999299228
144168	100	389	stimuli\animals\cat\animal_cat10.jpg             	1	5	1	animal_cat10.jpg     	animals  	0	cat       	6	cat10       	69	alive    	1	moves	1	natural 	1	n	0	0    	 	0.0	0	161.960311800009	162.060229999945	0.099918199935928
144318	100	390	stimuli\animals\dog\animal_dog04.jpg             	1	5	1	animal_dog04.jpg     	animals  	0	dog       	11	dog04       	113	alive    	1	moves	1	natural 	1	n	0	0    	 	0.0	0	162.110359099926	162.210219099885	0.0998599999584257
144468	100	391	stimuli\nonmovNat\rock\nmn_rock07.jpg            	1	5	1	nmn_rock07.jpg       	nonmovNat	5	rock      	30	rock07      	306	not_alive	0	still	0	natural 	1	n	0	0    	 	0.0	0	162.26033009984502	162.360220899805	0.0998907999601215
144618	100	392	stimuli\movNat\fire\mn_fire05.jpg                	1	5	1	mn_fire05.jpg        	movNat   	3	fire      	15	fire05      	154	not_alive	0	moves	1	natural 	1	n	0	0    	 	0.0	0	162.410315499874	162.510219999822	0.0999044999480247
144768	100	393	stimuli\movArt\boat\ma_boat07.jpg                	1	5	1	ma_boat07.jpg        	movArt   	2	boat      	2	boat07      	26	not_alive	0	moves	1	artefact	0	n	0	0    	 	0.0	0	162.560305499937	162.66028969991	0.0999841999728232
144918	100	394	stimuli\plant\grass\plant_grass06.jpg            	1	5	1	plant_grass06.jpg    	plant    	6	grass     	17	grass06     	175	alive    	1	still	0	natural 	1	n	0	0    	 	0.0	0	162.710397299845	162.810251999879	0.0998547000344842
145068	100	395	stimuli\movArt\train\ma_train10.jpg              	1	5	1	ma_train10.jpg       	movArt   	2	train     	34	train10     	349	not_alive	0	moves	1	artefact	0	n	0	0    	 	0.0	0	162.860346599948	162.960219899891	0.0998732999432832
145218	100	396	stimuli\animals2\lemur\animal_lemur09.jpg        	1	5	1	animal_lemur09.jpg   	animals2 	1	lemur     	23	lemur09     	238	alive    	1	moves	1	natural 	1	n	0	0    	 	0.0	0	163.010315599851	163.110225199955	0.099909600103274
145368	100	397	stimuli\plant2\clover\plant_clover02.jpg         	1	5	1	plant_clover02.jpg   	plant2   	7	clover    	9	clover02    	91	alive    	1	still	0	natural 	1	n	0	0    	 	0.0	0	163.160312699853	163.260216899915	0.0999042000621557
145518	100	398	stimuli\animals\cat\animal_cat01.jpg             	1	5	1	animal_cat01.jpg     	animals  	0	cat       	6	cat01       	60	alive    	1	moves	1	natural 	1	n	0	0    	 	0.0	0	163.310320399934	163.410242599901	0.0999221999663859
145668	100	399	stimuli\plant\flower\plant_flower09.jpg          	1	5	1	plant_flower09.jpg   	plant    	6	flower    	16	flower09    	168	alive    	1	still	0	natural 	1	n	0	0    	 	0.0	0	163.46030139992902	163.56023199996	0.0999306000303477
154501	100	400	stimuli\animals2\pigeon\animal_pigeon03.jpg      	1	6	1	animal_pigeon03.jpg  	animals2 	1	pigeon    	28	pigeon03    	282	alive    	1	moves	1	natural 	1	n	0	0    	 	0.0	0	172.29357969993697	172.393470200011	0.0998905000742524
154651	100	401	stimuli\nonmovArt\mug\nma_mug09.jpg              	1	6	1	nma_mug09.jpg        	nonmovArt	4	mug       	26	mug09       	268	not_alive	0	still	0	artefact	0	n	0	0    	 	0.0	0	172.443547499832	172.54348799982102	0.0999404999893158
154801	100	402	stimuli\plant\vine\plant_vine02.jpg              	1	6	1	plant_vine02.jpg     	plant    	6	vine      	36	vine02      	361	alive    	1	still	0	natural 	1	n	0	0    	 	0.0	0	172.593577499967	172.69345339993	0.0998758999630808
154951	100	403	stimuli\nonmovArt\headphones\nma_headphones06.jpg	1	6	1	nma_headphones06.jpg 	nonmovArt	4	headphones	18	headphones06	185	not_alive	0	still	0	artefact	0	n	0	0    	 	0.0	0	172.743588399841	172.84348549996497	0.0998971001245081
155101	100	404	stimuli\plant2\lemontree\plant_lemontree10.jpg   	1	6	1	plant_lemontree10.jpg	plant2   	7	lemontree 	22	lemontree10 	229	alive    	1	still	0	natural 	1	n	0	0    	 	0.0	0	172.893567999825	172.993472399889	0.0999044000636786
155251	100	405	stimuli\animals2\tiger\animal_tiger10.jpg        	1	6	1	animal_tiger10.jpg   	animals2 	1	tiger     	33	tiger10     	339	alive    	1	moves	1	natural 	1	n	0	0    	 	0.0	0	173.04358099983102	173.143453199882	0.0998722000513225
155401	100	406	stimuli\nonmovArt\clothespeg\nma_clothespeg03.jpg	1	6	1	nma_clothespeg03.jpg 	nonmovArt	4	clothespeg	8	clothespeg03	82	not_alive	0	still	0	artefact	0	n	0	0    	 	0.0	0	173.193567699986	173.293462099973	0.0998943999875336
155551	100	407	stimuli\nonmovNat\cliff\nmn_cliff07.jpg          	1	6	1	nmn_cliff07.jpg      	nonmovNat	5	cliff     	7	cliff07     	76	not_alive	0	still	0	natural 	1	n	0	0    	 	0.0	0	173.34353620000198	173.443444399862	0.099908199859783
155701	100	408	stimuli\nonmovNat\cliff\nmn_cliff05.jpg          	1	6	1	nmn_cliff05.jpg      	nonmovNat	5	cliff     	7	cliff05     	74	not_alive	0	still	0	natural 	1	n	0	0    	 	0.0	0	173.49355119979	173.593465499813	0.0999143000226467
155851	100	409	stimuli\plant2\clover\plant_clover08.jpg         	1	6	1	plant_clover08.jpg   	plant2   	7	clover    	9	clover08    	97	alive    	1	still	0	natural 	1	n	0	0    	 	0.0	0	173.64357659989	173.74344749981498	0.0998708999250084
156002	100	410	stimuli\animals2\lemur\animal_lemur02.jpg        	1	6	1	animal_lemur02.jpg   	animals2 	1	lemur     	23	lemur02     	231	alive    	1	moves	1	natural 	1	n	0	0    	 	0.0	0	173.79366089985697	173.89353269990502	0.0998718000482767
156151	100	411	stimuli\plant2\fern\plant_fern08.jpg             	1	6	1	plant_fern08.jpg     	plant2   	7	fern      	14	fern08      	147	alive    	1	still	0	natural 	1	n	0	0    	 	0.0	0	173.94360359991	174.043469999917	0.0998664000071585
156301	100	412	stimuli\movNat\waves\mn_waves02.jpg              	1	6	1	mn_waves02.jpg       	movNat   	3	waves     	38	waves02     	381	not_alive	0	moves	1	natural 	1	n	1	0    	 	0.0	0	174.093533099862	174.19345409981898	0.0999209999572485
156451	100	413	stimuli\plant2\clover\plant_clover08.jpg         	1	6	1	plant_clover08.jpg   	plant2   	7	clover    	9	clover08    	97	alive    	1	still	0	natural 	1	n	0	0    	 	0.0	0	174.243582999799	174.343472399982	0.0998894001822918
156601	100	414	stimuli\nonmovArt\clothespeg\nma_clothespeg08.jpg	1	6	1	nma_clothespeg08.jpg 	nonmovArt	4	clothespeg	8	clothespeg08	87	not_alive	0	still	0	artefact	0	n	0	0    	 	0.0	0	174.393559399992	174.493460399797	0.0999009998049587
156751	100	415	stimuli\nonmovArt\lock\nma_lock03.jpg            	1	6	1	nma_lock03.jpg       	nonmovArt	4	lock      	24	lock03      	242	not_alive	0	still	0	artefact	0	n	0	1    	f	0.44204679992981205	1	174.543532399926	174.64344739983798	0.0999149999115616
156901	100	416	stimuli\animals2\whale\animal_whale05.jpg        	1	6	1	animal_whale05.jpg   	animals2 	1	whale     	39	whale05     	394	alive    	1	moves	1	natural 	1	n	0	0    	 	0.0	0	174.693542099791	174.793431499973	0.0998894001822918
157051	100	417	stimuli\nonmovNat\shell\nmn_shell08.jpg          	1	6	1	nmn_shell08.jpg      	nonmovNat	5	shell     	32	shell08     	327	not_alive	0	still	0	natural 	1	n	0	0    	 	0.0	0	174.843523299787	174.943438799819	0.0999155000317841
