onset	duration	eventnumber	stimulus_file	blockno	trialno	is_faststream	stim	stim_category	category_number	exemplar	exemplar_number	image_name	image_number	aliveness	aliveness_bin	movement	movement_bin	naturalness	naturalness_bin	response_hand_moves	istarget	response	keypressed	rt	correct	time_stimon	time_stimoff	stimdur
73725	100	0	stimuli\animals\dog\animal_dog01.jpg             	1	1	1	animal_dog01.jpg     	animals  	0	dog       	11	dog01       	110	alive    	1	moves	1	natural 	1	n	0	0    	 	0.0	0	86.4418150000274	86.54170050006358	0.09988550003618
73875	100	1	stimuli\animals\eagle\animal_eagle03.jpg         	1	1	1	animal_eagle03.jpg   	animals  	0	eagle     	13	eagle03     	132	alive    	1	moves	1	natural 	1	n	0	0    	 	0.0	0	86.59182589990091	86.69168239994909	0.0998565000481903
74025	100	2	stimuli\movArt\helicopter\ma_helicopter04.jpg    	1	1	1	ma_helicopter04.jpg  	movArt   	2	helicopter	19	helicopter04	193	not_alive	0	moves	1	artefact	0	n	0	0    	 	0.0	0	86.74179239990191	86.8417030998971	0.0999106999952346
74175	100	3	stimuli\nonmovArt\bench\nma_bench08.jpg          	1	1	1	nma_bench08.jpg      	nonmovArt	4	bench     	1	bench08     	17	not_alive	0	still	0	artefact	0	n	0	0    	 	0.0	0	86.8917863999959	86.9916793000884	0.0998929000925272
74325	100	4	stimuli\animals2\whale\animal_whale05.jpg        	1	1	1	animal_whale05.jpg   	animals2 	1	whale     	39	whale05     	394	alive    	1	moves	1	natural 	1	n	0	0    	 	0.0	0	87.04178970004429	87.141685300041	0.09989559999667098
74475	100	5	stimuli\animals\cat\animal_cat03.jpg             	1	1	1	animal_cat03.jpg     	animals  	0	cat       	6	cat03       	62	alive    	1	moves	1	natural 	1	n	0	0    	 	0.0	0	87.19179029995578	87.2916806000285	0.0998903000727296
74625	100	6	stimuli\plant2\clover\plant_clover02.jpg         	1	1	1	plant_clover02.jpg   	plant2   	7	clover    	9	clover02    	91	alive    	1	still	0	natural 	1	n	0	0    	 	0.0	0	87.3417708999477	87.44167990004641	0.0999090000987052
74775	100	7	stimuli\plant2\clover\plant_clover01.jpg         	1	1	1	plant_clover01.jpg   	plant2   	7	clover    	9	clover01    	90	alive    	1	still	0	natural 	1	n	0	0    	 	0.0	0	87.4917798000388	87.5916730999015	0.0998932998627424
74925	100	8	stimuli\animals2\tiger\animal_tiger09.jpg        	1	1	1	animal_tiger09.jpg   	animals2 	1	tiger     	33	tiger09     	338	alive    	1	moves	1	natural 	1	n	0	0    	 	0.0	0	87.642066200031	87.7416827999987	0.0996165999677032
75075	100	9	stimuli\movNat\waves\mn_waves08.jpg              	1	1	1	mn_waves08.jpg       	movNat   	3	waves     	38	waves08     	387	not_alive	0	moves	1	natural 	1	n	0	0    	 	0.0	0	87.7917929000687	87.8916805998888	0.0998876998201012
75225	100	10	stimuli\plant\vine\plant_vine08.jpg              	1	1	1	plant_vine08.jpg     	plant    	6	vine      	36	vine08      	367	alive    	1	still	0	natural 	1	n	0	0    	 	0.0	0	87.94174979999659	88.04167170007709	0.0999219000805169
75374	100	11	stimuli\plant\grass\plant_grass06.jpg            	1	1	1	plant_grass06.jpg    	plant    	6	grass     	17	grass06     	175	alive    	1	still	0	natural 	1	n	0	0    	 	0.0	0	88.09091869997792	88.19090829999192	0.0999896000139415
75524	100	12	stimuli\plant2\moss\plant_moss02.jpg             	1	1	1	plant_moss02.jpg     	plant2   	7	moss      	25	moss02      	251	alive    	1	still	0	natural 	1	n	0	0    	 	0.0	0	88.2409194998909	88.34090860001741	0.0999891001265496
75674	100	13	stimuli\plant2\fern\plant_fern03.jpg             	1	1	1	plant_fern03.jpg     	plant2   	7	fern      	14	fern03      	142	alive    	1	still	0	natural 	1	n	0	0    	 	0.0	0	88.39091610000472	88.49090839992279	0.0999922999180853
75824	100	14	stimuli\movNat\river\mn_river06.jpg              	1	1	1	mn_river06.jpg       	movNat   	3	river     	29	river06     	295	not_alive	0	moves	1	natural 	1	n	0	0    	 	0.0	0	88.54091649991459	88.6409062000457	0.0999897001311183
75974	100	15	stimuli\animals\dog\animal_dog04.jpg             	1	1	1	animal_dog04.jpg     	animals  	0	dog       	11	dog04       	113	alive    	1	moves	1	natural 	1	n	0	0    	 	0.0	0	88.69091550004671	88.7909053999465	0.0999898998998105
76124	100	16	stimuli\movArt\bus\ma_bus04.jpg                  	1	1	1	ma_bus04.jpg         	movArt   	2	bus       	3	bus04       	33	not_alive	0	moves	1	artefact	0	n	0	0    	 	0.0	0	88.8409122999292	88.9409014000557	0.0999891001265496
76274	100	17	stimuli\nonmovNat\sand\nmn_sand04.jpg            	1	1	1	nmn_sand04.jpg       	nonmovNat	5	sand      	31	sand04      	313	not_alive	0	still	0	natural 	1	n	0	0    	 	0.0	0	88.99091410008259	89.0909007000737	0.099986599991098
76424	100	18	stimuli\nonmovNat\crystal\nmn_crystal05.jpg      	1	1	1	nmn_crystal05.jpg    	nonmovNat	5	crystal   	10	crystal05   	104	not_alive	0	still	0	natural 	1	n	0	0    	 	0.0	0	89.1409116999712	89.240900499979	0.0999888000078499
76574	100	19	stimuli\movArt\bus\ma_bus02.jpg                  	1	1	1	ma_bus02.jpg         	movArt   	2	bus       	3	bus02       	31	not_alive	0	moves	1	artefact	0	n	0	0    	 	0.0	0	89.2909198000561	89.39089879998942	0.0999789999332279
76724	100	20	stimuli\plant\cactus\plant_cactus06.jpg          	1	1	1	plant_cactus06.jpg   	plant    	6	cactus    	4	cactus06    	45	alive    	1	still	0	natural 	1	n	0	0    	 	0.0	0	89.4409090001136	89.54089469998141	0.0999856998678296
76874	100	21	stimuli\movNat\waterfall\mn_waterfall09.jpg      	1	1	1	mn_waterfall09.jpg   	movNat   	3	waterfall 	37	waterfall09 	378	not_alive	0	moves	1	natural 	1	n	0	0    	 	0.0	0	89.5909064000007	89.69089729990809	0.099990899907425
77024	100	22	stimuli\animals2\pigeon\animal_pigeon06.jpg      	1	1	1	animal_pigeon06.jpg  	animals2 	1	pigeon    	28	pigeon06    	285	alive    	1	moves	1	natural 	1	n	0	0    	 	0.0	0	89.74090499989691	89.8408917998895	0.0999867999926209
77174	100	23	stimuli\animals2\whale\animal_whale09.jpg        	1	1	1	animal_whale09.jpg   	animals2 	1	whale     	39	whale09     	398	alive    	1	moves	1	natural 	1	n	0	0    	 	0.0	0	89.89090469991791	89.9908938000444	0.0999891001265496
77324	100	24	stimuli\movArt\boat\ma_boat03.jpg                	1	1	1	ma_boat03.jpg        	movArt   	2	boat      	2	boat03      	22	not_alive	0	moves	1	artefact	0	n	0	0    	 	0.0	0	90.04091130010781	90.14089299994521	0.0999816998373717
77474	100	25	stimuli\movArt\bus\ma_bus04.jpg                  	1	1	1	ma_bus04.jpg         	movArt   	2	bus       	3	bus04       	33	not_alive	0	moves	1	artefact	0	n	0	0    	 	0.0	0	90.1909014999401	90.2908878999297	0.0999863999895751
77624	100	26	stimuli\plant\vine\plant_vine01.jpg              	1	1	1	plant_vine01.jpg     	plant    	6	vine      	36	vine01      	360	alive    	1	still	0	natural 	1	n	0	0    	 	0.0	0	90.34089830005541	90.44088810007092	0.0999898000154644
77774	100	27	stimuli\animals2\bee\animal_bee02.jpg            	1	1	1	animal_bee02.jpg     	animals2 	1	bee       	0	bee02       	1	alive    	1	moves	1	natural 	1	n	0	0    	 	0.0	0	90.4908964000642	90.5908872000873	0.0999908000230789
77924	100	28	stimuli\animals\eagle\animal_eagle07.jpg         	1	1	1	animal_eagle07.jpg   	animals  	0	eagle     	13	eagle07     	136	alive    	1	moves	1	natural 	1	n	0	0    	 	0.0	0	90.64089570008221	90.74088419997129	0.0999884998891502
78074	100	29	stimuli\movArt\car\ma_car07.jpg                  	1	1	1	ma_car07.jpg         	movArt   	2	car       	5	car07       	56	not_alive	0	moves	1	artefact	0	n	0	0    	 	0.0	0	90.79089489998292	90.89088249998171	0.0999875999987125
78224	100	30	stimuli\animals2\lemur\animal_lemur08.jpg        	1	1	1	animal_lemur08.jpg   	animals2 	1	lemur     	23	lemur08     	237	alive    	1	moves	1	natural 	1	n	0	0    	 	0.0	0	90.94089420000091	91.0408832000103	0.0999890000093728
78374	100	31	stimuli\nonmovNat\sand\nmn_sand06.jpg            	1	1	1	nmn_sand06.jpg       	nonmovNat	5	sand      	31	sand06      	315	not_alive	0	still	0	natural 	1	n	0	0    	 	0.0	0	91.09090030007059	91.190880900016	0.09998059994541099
78524	100	32	stimuli\movArt\car\ma_car01.jpg                  	1	1	1	ma_car01.jpg         	movArt   	2	car       	5	car01       	50	not_alive	0	moves	1	artefact	0	n	0	0    	 	0.0	0	91.2408910000231	91.3408788000234	0.0999878000002354
78674	100	33	stimuli\plant2\lemontree\plant_lemontree03.jpg   	1	1	1	plant_lemontree03.jpg	plant2   	7	lemontree 	22	lemontree03 	222	alive    	1	still	0	natural 	1	n	1	0    	 	0.0	0	91.39088999992241	91.4908791999333	0.0999892000108957
78824	100	34	stimuli\plant2\lemontree\plant_lemontree06.jpg   	1	1	1	plant_lemontree06.jpg	plant2   	7	lemontree 	22	lemontree06 	225	alive    	1	still	0	natural 	1	n	0	0    	 	0.0	0	91.540889200056	91.6408772000577	0.0999880000017583
78974	100	35	stimuli\plant2\clover\plant_clover01.jpg         	1	1	1	plant_clover01.jpg   	plant2   	7	clover    	9	clover01    	90	alive    	1	still	0	natural 	1	n	0	1    	f	0.391983699984848	1	91.69088779995221	91.79087699996309	0.0999892000108957
79124	100	36	stimuli\nonmovNat\sand\nmn_sand06.jpg            	1	1	1	nmn_sand06.jpg       	nonmovNat	5	sand      	31	sand06      	315	not_alive	0	still	0	natural 	1	n	0	0    	 	0.0	0	91.84088629996401	91.9408738000784	0.0999875001143664
79274	100	37	stimuli\nonmovArt\mug\nma_mug09.jpg              	1	1	1	nma_mug09.jpg        	nonmovArt	4	mug       	26	mug09       	268	not_alive	0	still	0	artefact	0	n	0	0    	 	0.0	0	91.9908823999576	92.0908727999777	0.0999904000200331
79424	100	38	stimuli\movNat\hotspring\mn_hotspring08.jpg      	1	1	1	mn_hotspring08.jpg   	movNat   	3	hotspring 	21	hotspring08 	217	not_alive	0	moves	1	natural 	1	n	0	0    	 	0.0	0	92.1408804000821	92.2408694999758	0.0999890998937189
79574	100	39	stimuli\movArt\helicopter\ma_helicopter02.jpg    	1	1	1	ma_helicopter02.jpg  	movArt   	2	helicopter	19	helicopter02	191	not_alive	0	moves	1	artefact	0	n	0	0    	 	0.0	0	92.290878900094	92.39086899999529	0.0999900999013334
79724	100	40	stimuli\plant\cactus\plant_cactus05.jpg          	1	1	1	plant_cactus05.jpg   	plant    	6	cactus    	4	cactus05    	44	alive    	1	still	0	natural 	1	n	0	0    	 	0.0	0	92.4408768999856	92.5408777000848	0.100000800099224
79874	100	41	stimuli\animals\horse\animal_horse09.jpg         	1	1	1	animal_horse09.jpg   	animals  	0	horse     	20	horse09     	208	alive    	1	moves	1	natural 	1	n	0	0    	 	0.0	0	92.5908770000096	92.6908678000327	0.0999908000230789
80024	100	42	stimuli\nonmovArt\lock\nma_lock04.jpg            	1	1	1	nma_lock04.jpg       	nonmovArt	4	lock      	24	lock04      	243	not_alive	0	still	0	artefact	0	n	0	0    	 	0.0	0	92.7408749999013	92.8408645999152	0.0999896000139415
80174	100	43	stimuli\nonmovNat\shell\nmn_shell02.jpg          	1	1	1	nmn_shell02.jpg      	nonmovNat	5	shell     	32	shell02     	321	not_alive	0	still	0	natural 	1	n	0	0    	 	0.0	0	92.8908828001004	92.9908638999332	0.09998109983280301
80324	100	44	stimuli\plant2\fern\plant_fern01.jpg             	1	1	1	plant_fern01.jpg     	plant2   	7	fern      	14	fern01      	140	alive    	1	still	0	natural 	1	n	0	0    	 	0.0	0	93.04087130003609	93.140862399945	0.0999910999089479
80474	100	45	stimuli\nonmovNat\rock\nmn_rock06.jpg            	1	1	1	nmn_rock06.jpg       	nonmovNat	5	rock      	30	rock06      	305	not_alive	0	still	0	natural 	1	n	0	0    	 	0.0	0	93.1908736000769	93.29085980006501	0.0999861999880522
80624	100	46	stimuli\plant\vine\plant_vine06.jpg              	1	1	1	plant_vine06.jpg     	plant    	6	vine      	36	vine06      	365	alive    	1	still	0	natural 	1	n	0	0    	 	0.0	0	93.3408705000766	93.44086050009359	0.0999900000169873
80774	100	47	stimuli\plant2\moss\plant_moss06.jpg             	1	1	1	plant_moss06.jpg     	plant2   	7	moss      	25	moss06      	255	alive    	1	still	0	natural 	1	n	0	0    	 	0.0	0	93.4908656999469	93.59086150000799	0.0999958000611514
80924	100	48	stimuli\animals2\whale\animal_whale03.jpg        	1	1	1	animal_whale03.jpg   	animals2 	1	whale     	39	whale03     	392	alive    	1	moves	1	natural 	1	n	0	0    	 	0.0	0	93.6408673999831	93.74085730011579	0.0999899001326412
81074	100	49	stimuli\plant2\fern\plant_fern01.jpg             	1	1	1	plant_fern01.jpg     	plant2   	7	fern      	14	fern01      	140	alive    	1	still	0	natural 	1	n	1	0    	 	0.0	0	93.7908642999828	93.8908538999967	0.0999896000139415
81224	100	50	stimuli\plant2\palmtree\plant_palmtree01.jpg     	1	1	1	plant_palmtree01.jpg 	plant2   	7	palmtree  	27	palmtree01  	270	alive    	1	still	0	natural 	1	n	0	0    	 	0.0	0	93.9408658000175	94.04085280001159	0.0999869999941438
81374	100	51	stimuli\movNat\fire\mn_fire01.jpg                	1	1	1	mn_fire01.jpg        	movNat   	3	fire      	15	fire01      	150	not_alive	0	moves	1	natural 	1	n	0	1    	f	0.292117800097912	1	94.0908645000309	94.19085250003259	0.0999880000017583
81524	100	52	stimuli\nonmovNat\shell\nmn_shell06.jpg          	1	1	1	nmn_shell06.jpg      	nonmovNat	5	shell     	32	shell06     	325	not_alive	0	still	0	natural 	1	n	0	0    	 	0.0	0	94.2408592998982	94.3408498999197	0.099990600021556
81674	100	53	stimuli\movNat\waves\mn_waves04.jpg              	1	1	1	mn_waves04.jpg       	movNat   	3	waves     	38	waves04     	383	not_alive	0	moves	1	natural 	1	n	0	0    	 	0.0	0	94.3908595999237	94.49084659991779	0.0999869999941438
81824	100	54	stimuli\movArt\train\ma_train10.jpg              	1	1	1	ma_train10.jpg       	movArt   	2	train     	34	train10     	349	not_alive	0	moves	1	artefact	0	n	0	0    	 	0.0	0	94.5408604000695	94.64085029996929	0.0999898998998105
81974	100	55	stimuli\movArt\train\ma_train07.jpg              	1	1	1	ma_train07.jpg       	movArt   	2	train     	34	train07     	346	not_alive	0	moves	1	artefact	0	n	0	0    	 	0.0	0	94.69085770007221	94.79084679996599	0.0999890998937189
82124	100	56	stimuli\movNat\fire\mn_fire05.jpg                	1	1	1	mn_fire05.jpg        	movNat   	3	fire      	15	fire05      	154	not_alive	0	moves	1	natural 	1	n	0	0    	 	0.0	0	94.84085540007798	94.9408460000996	0.099990600021556
82274	100	57	stimuli\plant2\lemontree\plant_lemontree02.jpg   	1	1	1	plant_lemontree02.jpg	plant2   	7	lemontree 	22	lemontree02 	221	alive    	1	still	0	natural 	1	n	0	0    	 	0.0	0	94.9908527999651	95.09084139997141	0.09998860000632699
82424	100	58	stimuli\animals\cat\animal_cat07.jpg             	1	1	1	animal_cat07.jpg     	animals  	0	cat       	6	cat07       	66	alive    	1	moves	1	natural 	1	n	0	0    	 	0.0	0	95.14085510000591	95.24084140011111	0.099986300105229
82574	100	59	stimuli\movNat\waterfall\mn_waterfall03.jpg      	1	1	1	mn_waterfall03.jpg   	movNat   	3	waterfall 	37	waterfall03 	372	not_alive	0	moves	1	natural 	1	n	0	0    	 	0.0	0	95.2908522000071	95.3908420000225	0.0999898000154644
82724	100	60	stimuli\nonmovArt\lock\nma_lock01.jpg            	1	1	1	nma_lock01.jpg       	nonmovArt	4	lock      	24	lock01      	240	not_alive	0	still	0	artefact	0	n	0	0    	 	0.0	0	95.4408472001087	95.54083770001309	0.0999904999043792
82874	100	61	stimuli\nonmovNat\cliff\nmn_cliff07.jpg          	1	1	1	nmn_cliff07.jpg      	nonmovNat	5	cliff     	7	cliff07     	76	not_alive	0	still	0	natural 	1	n	0	0    	 	0.0	0	95.5908490999136	95.6908376000356	0.0999885001219809
83024	100	62	stimuli\nonmovArt\headphones\nma_headphones09.jpg	1	1	1	nma_headphones09.jpg 	nonmovArt	4	headphones	18	headphones09	188	not_alive	0	still	0	artefact	0	n	0	0    	 	0.0	0	95.7408455999102	95.84083459991959	0.0999890000093728
83174	100	63	stimuli\plant2\palmtree\plant_palmtree04.jpg     	1	1	1	plant_palmtree04.jpg 	plant2   	7	palmtree  	27	palmtree04  	273	alive    	1	still	0	natural 	1	n	0	0    	 	0.0	0	95.8908434000332	95.99083429994059	0.099990899907425
83324	100	64	stimuli\nonmovNat\crystal\nmn_crystal01.jpg      	1	1	1	nmn_crystal01.jpg    	nonmovNat	5	crystal   	10	crystal01   	100	not_alive	0	still	0	natural 	1	n	0	0    	 	0.0	0	96.04084379994309	96.14083130005751	0.0999875001143664
83474	100	65	stimuli\nonmovNat\shell\nmn_shell06.jpg          	1	1	1	nmn_shell06.jpg      	nonmovNat	5	shell     	32	shell06     	325	not_alive	0	still	0	natural 	1	n	0	0    	 	0.0	0	96.1908414000645	96.2908314000815	0.0999900000169873
83624	100	66	stimuli\movNat\river\mn_river10.jpg              	1	1	1	mn_river10.jpg       	movNat   	3	river     	29	river10     	299	not_alive	0	moves	1	natural 	1	n	0	0    	 	0.0	0	96.3408417999744	96.44083150010559	0.0999897001311183
83774	100	67	stimuli\nonmovNat\rock\nmn_rock10.jpg            	1	1	1	nmn_rock10.jpg       	nonmovNat	5	rock      	30	rock10      	309	not_alive	0	still	0	natural 	1	n	1	0    	 	0.0	0	96.4908422001172	96.5908276000992	0.0999853999819606
83924	100	68	stimuli\nonmovArt\bench\nma_bench01.jpg          	1	1	1	nma_bench01.jpg      	nonmovArt	4	bench     	1	bench01     	10	not_alive	0	still	0	artefact	0	n	0	0    	 	0.0	0	96.6408396000043	96.7408263999969	0.0999867999926209
84074	100	69	stimuli\animals2\pigeon\animal_pigeon08.jpg      	1	1	1	animal_pigeon08.jpg  	animals2 	1	pigeon    	28	pigeon08    	287	alive    	1	moves	1	natural 	1	n	0	1    	f	0.300185499945656	1	96.79083819990039	96.8908243000042	0.0999861001037061
84224	100	70	stimuli\animals2\lemur\animal_lemur07.jpg        	1	1	1	animal_lemur07.jpg   	animals2 	1	lemur     	23	lemur07     	236	alive    	1	moves	1	natural 	1	n	0	0    	 	0.0	0	96.94083629990931	97.04083189996891	0.0999956000596284
84374	100	71	stimuli\animals\eagle\animal_eagle02.jpg         	1	1	1	animal_eagle02.jpg   	animals  	0	eagle     	13	eagle02     	131	alive    	1	moves	1	natural 	1	n	0	0    	 	0.0	0	97.0908349000383	97.1908243999351	0.0999894998967647
84524	100	72	stimuli\plant\cactus\plant_cactus06.jpg          	1	1	1	plant_cactus06.jpg   	plant    	6	cactus    	4	cactus06    	45	alive    	1	still	0	natural 	1	n	0	0    	 	0.0	0	97.2408316000365	97.34081860003059	0.0999869999941438
84674	100	73	stimuli\animals\dolphin\animal_dolphin09.jpg     	1	1	1	animal_dolphin09.jpg 	animals  	0	dolphin   	12	dolphin09   	128	alive    	1	moves	1	natural 	1	n	0	0    	 	0.0	0	97.3908297999296	97.49081899994049	0.0999892000108957
84824	100	74	stimuli\animals2\lemur\animal_lemur05.jpg        	1	1	1	animal_lemur05.jpg   	animals2 	1	lemur     	23	lemur05     	234	alive    	1	moves	1	natural 	1	n	0	0    	 	0.0	0	97.54082909994759	97.64081860007721	0.0999895001295954
84974	100	75	stimuli\nonmovArt\bench\nma_bench06.jpg          	1	1	1	nma_bench06.jpg      	nonmovArt	4	bench     	1	bench06     	15	not_alive	0	still	0	artefact	0	n	0	0    	 	0.0	0	97.6908285999671	97.79081639996728	0.0999878000002354
85124	100	76	stimuli\plant\tree\plant_tree08.jpg              	1	1	1	plant_tree08.jpg     	plant    	6	tree      	35	tree08      	357	alive    	1	still	0	natural 	1	n	0	0    	 	0.0	0	97.8408236000687	97.9408156001009	0.0999920000322163
85274	100	77	stimuli\nonmovArt\mug\nma_mug03.jpg              	1	1	1	nma_mug03.jpg        	nonmovArt	4	mug       	26	mug03       	262	not_alive	0	still	0	artefact	0	n	0	0    	 	0.0	0	97.9908274000045	98.0908133001067	0.0999859001021832
85424	100	78	stimuli\movNat\waves\mn_waves05.jpg              	1	1	1	mn_waves05.jpg       	movNat   	3	waves     	38	waves05     	384	not_alive	0	moves	1	natural 	1	n	0	0    	 	0.0	0	98.140824199887	98.24081410001959	0.0999899001326412
85574	100	79	stimuli\movNat\waterfall\mn_waterfall03.jpg      	1	1	1	mn_waterfall03.jpg   	movNat   	3	waterfall 	37	waterfall03 	372	not_alive	0	moves	1	natural 	1	n	0	0    	 	0.0	0	98.29082380002359	98.39081349992192	0.0999896998982876
90425	100	80	stimuli\nonmovNat\rock\nmn_rock06.jpg            	1	2	1	nmn_rock06.jpg       	nonmovNat	5	rock      	30	rock06      	305	not_alive	0	still	0	natural 	1	n	0	0    	 	0.0	0	103.141586600104	103.241569200065	0.09998259996064
90575	100	81	stimuli\plant\flower\plant_flower02.jpg          	1	2	1	plant_flower02.jpg   	plant    	6	flower    	16	flower02    	161	alive    	1	still	0	natural 	1	n	0	0    	 	0.0	0	103.291663700016	103.3915444999	0.0998807998839765
90725	100	82	stimuli\movNat\fire\mn_fire05.jpg                	1	2	1	mn_fire05.jpg        	movNat   	3	fire      	15	fire05      	154	not_alive	0	moves	1	natural 	1	n	0	0    	 	0.0	0	103.441611699993	103.54166659992201	0.100054899929091
90875	100	83	stimuli\nonmovNat\cliff\nmn_cliff05.jpg          	1	2	1	nmn_cliff05.jpg      	nonmovNat	5	cliff     	7	cliff05     	74	not_alive	0	still	0	natural 	1	n	0	0    	 	0.0	0	103.59179520001601	103.691515600076	0.0997204000595957
91025	100	84	stimuli\animals\dog\animal_dog05.jpg             	1	2	1	animal_dog05.jpg     	animals  	0	dog       	11	dog05       	114	alive    	1	moves	1	natural 	1	n	0	0    	 	0.0	0	103.741634000093	103.841549699893	0.0999156998004764
91175	100	85	stimuli\nonmovArt\headphones\nma_headphones04.jpg	1	2	1	nma_headphones04.jpg 	nonmovArt	4	headphones	18	headphones04	183	not_alive	0	still	0	artefact	0	n	0	0    	 	0.0	0	103.891625900054	103.991528900107	0.0999030000530183
91325	100	86	stimuli\animals2\bee\animal_bee06.jpg            	1	2	1	animal_bee06.jpg     	animals2 	1	bee       	0	bee06       	5	alive    	1	moves	1	natural 	1	n	0	0    	 	0.0	0	104.04166190000299	104.14153270004299	0.0998708000406622
91475	100	87	stimuli\movArt\helicopter\ma_helicopter01.jpg    	1	2	1	ma_helicopter01.jpg  	movArt   	2	helicopter	19	helicopter01	190	not_alive	0	moves	1	artefact	0	n	0	0    	 	0.0	0	104.19161939993499	104.29152660001999	0.0999072000849992
91625	100	88	stimuli\movArt\boat\ma_boat03.jpg                	1	2	1	ma_boat03.jpg        	movArt   	2	boat      	2	boat03      	22	not_alive	0	moves	1	artefact	0	n	0	0    	 	0.0	0	104.34163690009198	104.441535799997	0.0998988999053836
91775	100	89	stimuli\movNat\hotspring\mn_hotspring10.jpg      	1	2	1	mn_hotspring10.jpg   	movNat   	3	hotspring 	21	hotspring10 	219	not_alive	0	moves	1	natural 	1	n	0	0    	 	0.0	0	104.491628899937	104.591564700007	0.09993580006994301
91925	100	90	stimuli\animals\dolphin\animal_dolphin10.jpg     	1	2	1	animal_dolphin10.jpg 	animals  	0	dolphin   	12	dolphin10   	129	alive    	1	moves	1	natural 	1	n	0	0    	 	0.0	0	104.64163139998001	104.741530200001	0.0998988000210374
92075	100	91	stimuli\animals\dolphin\animal_dolphin01.jpg     	1	2	1	animal_dolphin01.jpg 	animals  	0	dolphin   	12	dolphin01   	120	alive    	1	moves	1	natural 	1	n	0	0    	 	0.0	0	104.79164419998399	104.89154150011	0.09989730012603099
92225	100	92	stimuli\plant\tree\plant_tree03.jpg              	1	2	1	plant_tree03.jpg     	plant    	6	tree      	35	tree03      	352	alive    	1	still	0	natural 	1	n	0	0    	 	0.0	0	104.941624300089	105.04160170000999	0.0999773999210447
92375	100	93	stimuli\movNat\hotspring\mn_hotspring08.jpg      	1	2	1	mn_hotspring08.jpg   	movNat   	3	hotspring 	21	hotspring08 	217	not_alive	0	moves	1	natural 	1	n	0	0    	 	0.0	0	105.091608500108	105.191490700003	0.0998821998946368
92525	100	94	stimuli\plant2\moss\plant_moss01.jpg             	1	2	1	plant_moss01.jpg     	plant2   	7	moss      	25	moss01      	250	alive    	1	still	0	natural 	1	n	0	0    	 	0.0	0	105.241609399905	105.34160210005899	0.0999927001539617
92675	100	95	stimuli\nonmovArt\lock\nma_lock10.jpg            	1	2	1	nma_lock10.jpg       	nonmovArt	4	lock      	24	lock10      	249	not_alive	0	still	0	artefact	0	n	0	0    	 	0.0	0	105.391622100025	105.491517599905	0.0998954998794943
92825	100	96	stimuli\plant\grass\plant_grass03.jpg            	1	2	1	plant_grass03.jpg    	plant    	6	grass     	17	grass03     	172	alive    	1	still	0	natural 	1	n	0	0    	 	0.0	0	105.541624800069	105.641501100035	0.0998762999661266
92975	100	97	stimuli\movArt\car\ma_car07.jpg                  	1	2	1	ma_car07.jpg         	movArt   	2	car       	5	car07       	56	not_alive	0	moves	1	artefact	0	n	0	0    	 	0.0	0	105.691806799965	105.79150300007299	0.0996962001081556
93125	100	98	stimuli\nonmovNat\cliff\nmn_cliff09.jpg          	1	2	1	nmn_cliff09.jpg      	nonmovNat	5	cliff     	7	cliff09     	78	not_alive	0	still	0	natural 	1	n	0	0    	 	0.0	0	105.841600700049	105.941510600038	0.09990989998914301
93275	100	99	stimuli\animals2\tiger\animal_tiger06.jpg        	1	2	1	animal_tiger06.jpg   	animals2 	1	tiger     	33	tiger06     	335	alive    	1	moves	1	natural 	1	n	0	0    	 	0.0	0	105.991614700062	106.09149809996599	0.0998833999037742
93425	100	100	stimuli\plant\tree\plant_tree02.jpg              	1	2	1	plant_tree02.jpg     	plant    	6	tree      	35	tree02      	351	alive    	1	still	0	natural 	1	n	0	0    	 	0.0	0	106.14157250011299	106.241505099926	0.099932599812746
93575	100	101	stimuli\nonmovArt\clothespeg\nma_clothespeg08.jpg	1	2	1	nma_clothespeg08.jpg 	nonmovArt	4	clothespeg	8	clothespeg08	87	not_alive	0	still	0	artefact	0	n	0	0    	 	0.0	0	106.291590299923	106.391496799886	0.0999064999632537
93725	100	102	stimuli\plant\flower\plant_flower10.jpg          	1	2	1	plant_flower10.jpg   	plant    	6	flower    	16	flower10    	169	alive    	1	still	0	natural 	1	n	0	0    	 	0.0	0	106.441597899888	106.54148830007799	0.0998904001899063
93875	100	103	stimuli\animals2\bee\animal_bee08.jpg            	1	2	1	animal_bee08.jpg     	animals2 	1	bee       	0	bee08       	7	alive    	1	moves	1	natural 	1	n	0	1    	f	0.0	0	106.591591000091	106.691517899977	0.0999268998857587
94025	100	104	stimuli\movArt\boat\ma_boat05.jpg                	1	2	1	ma_boat05.jpg        	movArt   	2	boat      	2	boat05      	24	not_alive	0	moves	1	artefact	0	n	0	0    	 	0.0	0	106.74160790001	106.841485900106	0.0998780000954866
94175	100	105	stimuli\animals\horse\animal_horse04.jpg         	1	2	1	animal_horse04.jpg   	animals  	0	horse     	20	horse04     	203	alive    	1	moves	1	natural 	1	n	1	0    	 	0.0	0	106.891595500056	106.991441600025	0.0998460999689996
94325	100	106	stimuli\movNat\river\mn_river01.jpg              	1	2	1	mn_river01.jpg       	movNat   	3	river     	29	river01     	290	not_alive	0	moves	1	natural 	1	n	0	0    	 	0.0	0	107.041601399891	107.141527900007	0.0999265001155436
94475	100	107	stimuli\nonmovArt\mug\nma_mug03.jpg              	1	2	1	nma_mug03.jpg        	nonmovArt	4	mug       	26	mug03       	262	not_alive	0	still	0	artefact	0	n	0	1    	f	0.39197429991327204	1	107.19158990006001	107.29149749991501	0.0999075998552143
94625	100	108	stimuli\plant2\palmtree\plant_palmtree05.jpg     	1	2	1	plant_palmtree05.jpg 	plant2   	7	palmtree  	27	palmtree05  	274	alive    	1	still	0	natural 	1	n	0	0    	 	0.0	0	107.34158900007601	107.44147640000999	0.0998873999342322
94775	100	109	stimuli\nonmovArt\clothespeg\nma_clothespeg02.jpg	1	2	1	nma_clothespeg02.jpg 	nonmovArt	4	clothespeg	8	clothespeg02	81	not_alive	0	still	0	artefact	0	n	0	0    	 	0.0	0	107.491599099943	107.591485300101	0.0998862001579254
94925	100	110	stimuli\nonmovArt\clothespeg\nma_clothespeg09.jpg	1	2	1	nma_clothespeg09.jpg 	nonmovArt	4	clothespeg	8	clothespeg09	88	not_alive	0	still	0	artefact	0	n	0	0    	 	0.0	0	107.641585000092	107.74147760006599	0.0998925999738276
95075	100	111	stimuli\nonmovArt\headphones\nma_headphones07.jpg	1	2	1	nma_headphones07.jpg 	nonmovArt	4	headphones	18	headphones07	186	not_alive	0	still	0	artefact	0	n	0	0    	 	0.0	0	107.791579599958	107.89148860005699	0.0999090000987052
95225	100	112	stimuli\nonmovNat\crystal\nmn_crystal06.jpg      	1	2	1	nmn_crystal06.jpg    	nonmovNat	5	crystal   	10	crystal06   	105	not_alive	0	still	0	natural 	1	n	0	0    	 	0.0	0	107.941581099993	108.04147859988701	0.0998974998947233
95375	100	113	stimuli\animals\cat\animal_cat06.jpg             	1	2	1	animal_cat06.jpg     	animals  	0	cat       	6	cat06       	65	alive    	1	moves	1	natural 	1	n	0	0    	 	0.0	0	108.091580699896	108.191482400056	0.0999017001595348
95525	100	114	stimuli\plant\grass\plant_grass01.jpg            	1	2	1	plant_grass01.jpg    	plant    	6	grass     	17	grass01     	170	alive    	1	still	0	natural 	1	n	0	0    	 	0.0	0	108.241579199908	108.34147399989901	0.0998947999905794
95675	100	115	stimuli\animals\horse\animal_horse05.jpg         	1	2	1	animal_horse05.jpg   	animals  	0	horse     	20	horse05     	204	alive    	1	moves	1	natural 	1	n	0	0    	 	0.0	0	108.39157769991999	108.491485399893	0.0999076999723911
95825	100	116	stimuli\animals2\tiger\animal_tiger04.jpg        	1	2	1	animal_tiger04.jpg   	animals2 	1	tiger     	33	tiger04     	333	alive    	1	moves	1	natural 	1	n	0	0    	 	0.0	0	108.541573300026	108.641471300041	0.0998980000149458
95975	100	117	stimuli\movArt\train\ma_train04.jpg              	1	2	1	ma_train04.jpg       	movArt   	2	train     	34	train04     	343	not_alive	0	moves	1	artefact	0	n	0	0    	 	0.0	0	108.691603699932	108.79165520006799	0.10005150013603299
96125	100	118	stimuli\plant\flower\plant_flower08.jpg          	1	2	1	plant_flower08.jpg   	plant    	6	flower    	16	flower08    	167	alive    	1	still	0	natural 	1	n	0	0    	 	0.0	0	108.841672600014	108.94148509996	0.0998124999459832
96275	100	119	stimuli\animals2\pigeon\animal_pigeon09.jpg      	1	2	1	animal_pigeon09.jpg  	animals2 	1	pigeon    	28	pigeon09    	288	alive    	1	moves	1	natural 	1	n	0	0    	 	0.0	0	108.991571800085	109.09143580007401	0.0998639999888837
96425	100	120	stimuli\movArt\boat\ma_boat10.jpg                	1	2	1	ma_boat10.jpg        	movArt   	2	boat      	2	boat10      	29	not_alive	0	moves	1	artefact	0	n	0	0    	 	0.0	0	109.141568900086	109.241461300058	0.0998923999723047
96575	100	121	stimuli\animals\dolphin\animal_dolphin08.jpg     	1	2	1	animal_dolphin08.jpg 	animals  	0	dolphin   	12	dolphin08   	127	alive    	1	moves	1	natural 	1	n	0	0    	 	0.0	0	109.291582300095	109.39145749993601	0.0998751998413354
96725	100	122	stimuli\animals2\tiger\animal_tiger07.jpg        	1	2	1	animal_tiger07.jpg   	animals2 	1	tiger     	33	tiger07     	336	alive    	1	moves	1	natural 	1	n	0	0    	 	0.0	0	109.44157369993601	109.541458799969	0.0998851000331342
96875	100	123	stimuli\plant2\lemontree\plant_lemontree06.jpg   	1	2	1	plant_lemontree06.jpg	plant2   	7	lemontree 	22	lemontree06 	225	alive    	1	still	0	natural 	1	n	0	0    	 	0.0	0	109.591564700007	109.691610200098	0.100045500090346
97025	100	124	stimuli\movArt\helicopter\ma_helicopter10.jpg    	1	2	1	ma_helicopter10.jpg  	movArt   	2	helicopter	19	helicopter10	199	not_alive	0	moves	1	artefact	0	n	0	0    	 	0.0	0	109.74156940006701	109.841464400059	0.0998949999921023
97175	100	125	stimuli\plant2\fern\plant_fern08.jpg             	1	2	1	plant_fern08.jpg     	plant2   	7	fern      	14	fern08      	147	alive    	1	still	0	natural 	1	n	0	0    	 	0.0	0	109.89155280008	109.991467500106	0.0999147000256925
97325	100	126	stimuli\movNat\waterfall\mn_waterfall02.jpg      	1	2	1	mn_waterfall02.jpg   	movNat   	3	waterfall 	37	waterfall02 	371	not_alive	0	moves	1	natural 	1	n	0	0    	 	0.0	0	110.0415566999	110.14147310005501	0.0999164001550525
97475	100	127	stimuli\movNat\river\mn_river05.jpg              	1	2	1	mn_river05.jpg       	movNat   	3	river     	29	river05     	294	not_alive	0	moves	1	natural 	1	n	0	0    	 	0.0	0	110.191563599976	110.291459399974	0.0998957999981939
97625	100	128	stimuli\nonmovNat\rock\nmn_rock04.jpg            	1	2	1	nmn_rock04.jpg       	nonmovNat	5	rock      	30	rock04      	303	not_alive	0	still	0	natural 	1	n	0	0    	 	0.0	0	110.341562099988	110.44143450004	0.0998724000528454
97775	100	129	stimuli\movNat\hotspring\mn_hotspring07.jpg      	1	2	1	mn_hotspring07.jpg   	movNat   	3	hotspring 	21	hotspring07 	216	not_alive	0	moves	1	natural 	1	n	0	0    	 	0.0	0	110.491590599995	110.591464899946	0.0998742999508977
97925	100	130	stimuli\nonmovArt\lock\nma_lock01.jpg            	1	2	1	nma_lock01.jpg       	nonmovArt	4	lock      	24	lock01      	240	not_alive	0	still	0	artefact	0	n	0	0    	 	0.0	0	110.64165019988998	110.74146550008999	0.0998153002001345
98075	100	131	stimuli\nonmovArt\bench\nma_bench10.jpg          	1	2	1	nma_bench10.jpg      	nonmovArt	4	bench     	1	bench10     	19	not_alive	0	still	0	artefact	0	n	0	0    	 	0.0	0	110.791548799956	110.891462699976	0.099913900019601
98225	100	132	stimuli\animals\dolphin\animal_dolphin08.jpg     	1	2	1	animal_dolphin08.jpg 	animals  	0	dolphin   	12	dolphin08   	127	alive    	1	moves	1	natural 	1	n	0	0    	 	0.0	0	110.941552100005	111.041442499962	0.0998903999570757
98375	100	133	stimuli\animals\cat\animal_cat08.jpg             	1	2	1	animal_cat08.jpg     	animals  	0	cat       	6	cat08       	67	alive    	1	moves	1	natural 	1	n	0	0    	 	0.0	0	111.091544199968	111.191449400038	0.0999052000697702
98525	100	134	stimuli\movNat\waves\mn_waves09.jpg              	1	2	1	mn_waves09.jpg       	movNat   	3	waves     	38	waves09     	388	not_alive	0	moves	1	natural 	1	n	0	0    	 	0.0	0	111.241544699995	111.341453100089	0.0999084000941366
98675	100	135	stimuli\nonmovNat\shell\nmn_shell08.jpg          	1	2	1	nmn_shell08.jpg      	nonmovNat	5	shell     	32	shell08     	327	not_alive	0	still	0	natural 	1	n	0	0    	 	0.0	0	111.39154909993499	111.491445499938	0.0998964000027626
98825	100	136	stimuli\plant2\clover\plant_clover06.jpg         	1	2	1	plant_clover06.jpg   	plant2   	7	clover    	9	clover06    	95	alive    	1	still	0	natural 	1	n	0	0    	 	0.0	0	111.541544799926	111.64144810009701	0.099903300171718
98975	100	137	stimuli\plant\flower\plant_flower08.jpg          	1	2	1	plant_flower08.jpg   	plant    	6	flower    	16	flower08    	167	alive    	1	still	0	natural 	1	n	0	0    	 	0.0	0	111.69157180003799	111.79145670007	0.0998849000316113
99125	100	138	stimuli\animals\eagle\animal_eagle01.jpg         	1	2	1	animal_eagle01.jpg   	animals  	0	eagle     	13	eagle01     	130	alive    	1	moves	1	natural 	1	n	1	0    	 	0.0	0	111.84155320003599	111.941416899906	0.09986369987018401
99275	100	139	stimuli\plant2\palmtree\plant_palmtree03.jpg     	1	2	1	plant_palmtree03.jpg 	plant2   	7	palmtree  	27	palmtree03  	272	alive    	1	still	0	natural 	1	n	0	0    	 	0.0	0	111.99154670001002	112.091435899958	0.0998891999479383
99425	100	140	stimuli\animals\dolphin\animal_dolphin05.jpg     	1	2	1	animal_dolphin05.jpg 	animals  	0	dolphin   	12	dolphin05   	124	alive    	1	moves	1	natural 	1	n	0	1    	f	0.391974499914795	1	112.141550499946	112.24146850011299	0.0999180001672357
99575	100	141	stimuli\movNat\waves\mn_waves06.jpg              	1	2	1	mn_waves06.jpg       	movNat   	3	waves     	38	waves06     	385	not_alive	0	moves	1	natural 	1	n	0	0    	 	0.0	0	112.291625200072	112.391544200014	0.0999189999420195
99725	100	142	stimuli\plant\flower\plant_flower07.jpg          	1	2	1	plant_flower07.jpg   	plant    	6	flower    	16	flower07    	166	alive    	1	still	0	natural 	1	n	0	0    	 	0.0	0	112.441598899895	112.54144209995899	0.0998432000633329
99875	100	143	stimuli\nonmovNat\cliff\nmn_cliff06.jpg          	1	2	1	nmn_cliff06.jpg      	nonmovNat	5	cliff     	7	cliff06     	75	not_alive	0	still	0	natural 	1	n	0	0    	 	0.0	0	112.591546599986	112.691696400056	0.10014980006963
100025	100	144	stimuli\plant2\clover\plant_clover07.jpg         	1	2	1	plant_clover07.jpg   	plant2   	7	clover    	9	clover07    	96	alive    	1	still	0	natural 	1	n	0	0    	 	0.0	0	112.741518399911	112.84144670004	0.0999283001292496
100175	100	145	stimuli\movArt\train\ma_train09.jpg              	1	2	1	ma_train09.jpg       	movArt   	2	train     	34	train09     	348	not_alive	0	moves	1	artefact	0	n	1	0    	 	0.0	0	112.891533500049	112.991426900029	0.0998933999799192
100325	100	146	stimuli\movArt\boat\ma_boat07.jpg                	1	2	1	ma_boat07.jpg        	movArt   	2	boat      	2	boat07      	26	not_alive	0	moves	1	artefact	0	n	0	0    	 	0.0	0	113.04153129993901	113.14143449999399	0.0999032000545412
100475	100	147	stimuli\nonmovNat\sand\nmn_sand09.jpg            	1	2	1	nmn_sand09.jpg       	nonmovNat	5	sand      	31	sand09      	318	not_alive	0	still	0	natural 	1	n	0	1    	f	0.39197849994525297	1	113.191530599957	113.291436600033	0.0999060000758618
100625	100	148	stimuli\nonmovNat\sand\nmn_sand05.jpg            	1	2	1	nmn_sand05.jpg       	nonmovNat	5	sand      	31	sand05      	314	not_alive	0	still	0	natural 	1	n	0	0    	 	0.0	0	113.341486900114	113.44143419992201	0.0999472998082637
100775	100	149	stimuli\plant2\lemontree\plant_lemontree10.jpg   	1	2	1	plant_lemontree10.jpg	plant2   	7	lemontree 	22	lemontree10 	229	alive    	1	still	0	natural 	1	n	0	0    	 	0.0	0	113.49152039992599	113.591429200023	0.0999088000971824
100925	100	150	stimuli\animals\horse\animal_horse08.jpg         	1	2	1	animal_horse08.jpg   	animals  	0	horse     	20	horse08     	207	alive    	1	moves	1	natural 	1	n	0	0    	 	0.0	0	113.641537999967	113.74142120010201	0.0998832001350819
101075	100	151	stimuli\plant2\palmtree\plant_palmtree07.jpg     	1	2	1	plant_palmtree07.jpg 	plant2   	7	palmtree  	27	palmtree07  	276	alive    	1	still	0	natural 	1	n	0	0    	 	0.0	0	113.79152350011299	113.8914220999	0.0998985997866839
101225	100	152	stimuli\animals2\whale\animal_whale04.jpg        	1	2	1	animal_whale04.jpg   	animals2 	1	whale     	39	whale04     	393	alive    	1	moves	1	natural 	1	n	0	0    	 	0.0	0	113.941520600114	114.041501099942	0.0999804998282343
101375	100	153	stimuli\movNat\river\mn_river02.jpg              	1	2	1	mn_river02.jpg       	movNat   	3	river     	29	river02     	291	not_alive	0	moves	1	natural 	1	n	0	0    	 	0.0	0	114.091558000073	114.19152450002701	0.099966499954462
101525	100	154	stimuli\plant\grass\plant_grass05.jpg            	1	2	1	plant_grass05.jpg    	plant    	6	grass     	17	grass05     	174	alive    	1	still	0	natural 	1	n	0	0    	 	0.0	0	114.241578300018	114.341419999953	0.0998416999354958
101675	100	155	stimuli\movNat\river\mn_river08.jpg              	1	2	1	mn_river08.jpg       	movNat   	3	river     	29	river08     	297	not_alive	0	moves	1	natural 	1	n	0	0    	 	0.0	0	114.391520400066	114.491425599903	0.0999051998369395
101825	100	156	stimuli\movNat\waves\mn_waves06.jpg              	1	2	1	mn_waves06.jpg       	movNat   	3	waves     	38	waves06     	385	not_alive	0	moves	1	natural 	1	n	0	0    	 	0.0	0	114.54151730006599	114.641415100079	0.0998978000134229
101975	100	157	stimuli\nonmovArt\clothespeg\nma_clothespeg10.jpg	1	2	1	nma_clothespeg10.jpg 	nonmovArt	4	clothespeg	8	clothespeg10	89	not_alive	0	still	0	artefact	0	n	0	0    	 	0.0	0	114.691623399965	114.791414499981	0.0997911000158637
102125	100	158	stimuli\nonmovNat\cliff\nmn_cliff07.jpg          	1	2	1	nmn_cliff07.jpg      	nonmovNat	5	cliff     	7	cliff07     	76	not_alive	0	still	0	natural 	1	n	0	0    	 	0.0	0	114.84149229992201	114.94142080005301	0.0999285001307726
102275	100	159	stimuli\nonmovArt\mug\nma_mug01.jpg              	1	2	1	nma_mug01.jpg        	nonmovArt	4	mug       	26	mug01       	260	not_alive	0	still	0	artefact	0	n	0	0    	 	0.0	0	114.991512699984	115.09141379990601	0.0999010999221354
107608	100	160	stimuli\animals\cat\animal_cat09.jpg             	1	3	1	animal_cat09.jpg     	animals  	0	cat       	6	cat09       	68	alive    	1	moves	1	natural 	1	n	0	0    	 	0.0	0	120.32488059997601	120.424686900107	0.099806300131604
107758	100	161	stimuli\movArt\car\ma_car05.jpg                  	1	3	1	ma_car05.jpg         	movArt   	2	car       	5	car05       	54	not_alive	0	moves	1	artefact	0	n	0	0    	 	0.0	0	120.474796999944	120.574686700013	0.0998897000681608
107908	100	162	stimuli\plant2\fern\plant_fern04.jpg             	1	3	1	plant_fern04.jpg     	plant2   	7	fern      	14	fern04      	143	alive    	1	still	0	natural 	1	n	0	0    	 	0.0	0	120.62479440006399	120.724694400094	0.0999000000301748
108058	100	163	stimuli\movArt\boat\ma_boat06.jpg                	1	3	1	ma_boat06.jpg        	movArt   	2	boat      	2	boat06      	25	not_alive	0	moves	1	artefact	0	n	0	0    	 	0.0	0	120.77478770003701	120.874702600064	0.0999149000272154
108208	100	164	stimuli\plant2\palmtree\plant_palmtree03.jpg     	1	3	1	plant_palmtree03.jpg 	plant2   	7	palmtree  	27	palmtree03  	272	alive    	1	still	0	natural 	1	n	0	0    	 	0.0	0	120.92478820006399	121.024676200002	0.0998879999388009
108358	100	165	stimuli\animals2\lemur\animal_lemur01.jpg        	1	3	1	animal_lemur01.jpg   	animals2 	1	lemur     	23	lemur01     	230	alive    	1	moves	1	natural 	1	n	0	0    	 	0.0	0	121.07479159999599	121.174669000087	0.0998774000909179
108508	100	166	stimuli\nonmovNat\crystal\nmn_crystal02.jpg      	1	3	1	nmn_crystal02.jpg    	nonmovNat	5	crystal   	10	crystal02   	101	not_alive	0	still	0	natural 	1	n	0	0    	 	0.0	0	121.22478860011299	121.324680699967	0.09989209985360499
108658	100	167	stimuli\movArt\bus\ma_bus07.jpg                  	1	3	1	ma_bus07.jpg         	movArt   	2	bus       	3	bus07       	36	not_alive	0	moves	1	artefact	0	n	0	0    	 	0.0	0	121.374775999924	121.474677399965	0.0999014000408351
108808	100	168	stimuli\animals\horse\animal_horse01.jpg         	1	3	1	animal_horse01.jpg   	animals  	0	horse     	20	horse01     	200	alive    	1	moves	1	natural 	1	n	0	0    	 	0.0	0	121.524786700029	121.624687300064	0.0999006000347435
108958	100	169	stimuli\nonmovNat\rock\nmn_rock03.jpg            	1	3	1	nmn_rock03.jpg       	nonmovNat	5	rock      	30	rock03      	302	not_alive	0	still	0	natural 	1	n	0	0    	 	0.0	0	121.674782400019	121.774704999989	0.0999225999694317
109108	100	170	stimuli\movArt\train\ma_train02.jpg              	1	3	1	ma_train02.jpg       	movArt   	2	train     	34	train02     	341	not_alive	0	moves	1	artefact	0	n	0	0    	 	0.0	0	121.82477710000201	121.924754499923	0.0999773999210447
109258	100	171	stimuli\animals\horse\animal_horse05.jpg         	1	3	1	animal_horse05.jpg   	animals  	0	horse     	20	horse05     	204	alive    	1	moves	1	natural 	1	n	0	0    	 	0.0	0	121.974789599888	122.074692300055	0.0999027001671493
109408	100	172	stimuli\movNat\fire\mn_fire02.jpg                	1	3	1	mn_fire02.jpg        	movNat   	3	fire      	15	fire02      	151	not_alive	0	moves	1	natural 	1	n	1	0    	 	0.0	0	122.12482429994301	122.2246687999	0.0998444999568164
109558	100	173	stimuli\animals2\pigeon\animal_pigeon07.jpg      	1	3	1	animal_pigeon07.jpg  	animals2 	1	pigeon    	28	pigeon07    	286	alive    	1	moves	1	natural 	1	n	0	0    	 	0.0	0	122.274774000049	122.374686999945	0.0999129998963326
109708	100	174	stimuli\nonmovNat\rock\nmn_rock09.jpg            	1	3	1	nmn_rock09.jpg       	nonmovNat	5	rock      	30	rock09      	308	not_alive	0	still	0	natural 	1	n	0	1    	f	0.39191749994643005	1	122.424761200091	122.52465489995701	0.0998936998657882
109858	100	175	stimuli\movArt\car\ma_car10.jpg                  	1	3	1	ma_car10.jpg         	movArt   	2	car       	5	car10       	59	not_alive	0	moves	1	artefact	0	n	0	0    	 	0.0	0	122.57476409990299	122.67468519997801	0.0999211000744253
110008	100	176	stimuli\plant\tree\plant_tree05.jpg              	1	3	1	plant_tree05.jpg     	plant    	6	tree      	35	tree05      	354	alive    	1	still	0	natural 	1	n	0	0    	 	0.0	0	122.724762700032	122.82465919991999	0.0998964998871088
110158	100	177	stimuli\animals2\bee\animal_bee03.jpg            	1	3	1	animal_bee03.jpg     	animals2 	1	bee       	0	bee03       	2	alive    	1	moves	1	natural 	1	n	0	0    	 	0.0	0	122.874770999886	122.974659000058	0.0998880001716315
110308	100	178	stimuli\plant2\clover\plant_clover07.jpg         	1	3	1	plant_clover07.jpg   	plant2   	7	clover    	9	clover07    	96	alive    	1	still	0	natural 	1	n	0	0    	 	0.0	0	123.02476239996	123.124665800016	0.0999034000560641
110458	100	179	stimuli\nonmovNat\shell\nmn_shell04.jpg          	1	3	1	nmn_shell04.jpg      	nonmovNat	5	shell     	32	shell04     	323	not_alive	0	still	0	natural 	1	n	0	0    	 	0.0	0	123.174784400035	123.274666399928	0.0998819998931139
110608	100	180	stimuli\plant2\moss\plant_moss05.jpg             	1	3	1	plant_moss05.jpg     	plant2   	7	moss      	25	moss05      	254	alive    	1	still	0	natural 	1	n	0	0    	 	0.0	0	123.32476609991899	123.424662600039	0.0998965001199394
110758	100	181	stimuli\movArt\helicopter\ma_helicopter04.jpg    	1	3	1	ma_helicopter04.jpg  	movArt   	2	helicopter	19	helicopter04	193	not_alive	0	moves	1	artefact	0	n	0	0    	 	0.0	0	123.474768599961	123.57467629993299	0.0999076999723911
110908	100	182	stimuli\movNat\waterfall\mn_waterfall09.jpg      	1	3	1	mn_waterfall09.jpg   	movNat   	3	waterfall 	37	waterfall09 	378	not_alive	0	moves	1	natural 	1	n	0	0    	 	0.0	0	123.624774799915	123.72477569989901	0.10000089998357
111058	100	183	stimuli\nonmovArt\lock\nma_lock05.jpg            	1	3	1	nma_lock05.jpg       	nonmovArt	4	lock      	24	lock05      	244	not_alive	0	still	0	artefact	0	n	0	0    	 	0.0	0	123.774762500077	123.87465839996	0.0998958998825401
111208	100	184	stimuli\animals2\pigeon\animal_pigeon01.jpg      	1	3	1	animal_pigeon01.jpg  	animals2 	1	pigeon    	28	pigeon01    	280	alive    	1	moves	1	natural 	1	n	0	0    	 	0.0	0	123.92476289998699	124.024652000051	0.0998891000635922
111358	100	185	stimuli\movNat\fire\mn_fire06.jpg                	1	3	1	mn_fire06.jpg        	movNat   	3	fire      	15	fire06      	155	not_alive	0	moves	1	natural 	1	n	0	0    	 	0.0	0	124.074759599986	124.17466940008998	0.0999098001047968
111508	100	186	stimuli\nonmovArt\headphones\nma_headphones04.jpg	1	3	1	nma_headphones04.jpg 	nonmovArt	4	headphones	18	headphones04	183	not_alive	0	still	0	artefact	0	n	0	0    	 	0.0	0	124.224753800081	124.324647200061	0.0998933999799192
111658	100	187	stimuli\animals\dog\animal_dog10.jpg             	1	3	1	animal_dog10.jpg     	animals  	0	dog       	11	dog10       	119	alive    	1	moves	1	natural 	1	n	0	0    	 	0.0	0	124.37476469995501	124.47466440009899	0.0998997001443058
111808	100	188	stimuli\plant\vine\plant_vine03.jpg              	1	3	1	plant_vine03.jpg     	plant    	6	vine      	36	vine03      	362	alive    	1	still	0	natural 	1	n	0	0    	 	0.0	0	124.524763300084	124.62466600001801	0.0999026999343186
111958	100	189	stimuli\nonmovArt\headphones\nma_headphones07.jpg	1	3	1	nma_headphones07.jpg 	nonmovArt	4	headphones	18	headphones07	186	not_alive	0	still	0	artefact	0	n	0	0    	 	0.0	0	124.674748599995	124.774658499984	0.09990989998914301
112108	100	190	stimuli\plant2\lemontree\plant_lemontree03.jpg   	1	3	1	plant_lemontree03.jpg	plant2   	7	lemontree 	22	lemontree03 	222	alive    	1	still	0	natural 	1	n	0	0    	 	0.0	0	124.824741800083	124.924638000084	0.0998962000012397
112258	100	191	stimuli\movNat\waterfall\mn_waterfall06.jpg      	1	3	1	mn_waterfall06.jpg   	movNat   	3	waterfall 	37	waterfall06 	375	not_alive	0	moves	1	natural 	1	n	0	0    	 	0.0	0	124.974750299938	125.07464289991199	0.0998925999738276
112408	100	192	stimuli\animals2\lemur\animal_lemur10.jpg        	1	3	1	animal_lemur10.jpg   	animals2 	1	lemur     	23	lemur10     	239	alive    	1	moves	1	natural 	1	n	0	0    	 	0.0	0	125.124782999977	125.224652699893	0.09986969991587101
112558	100	193	stimuli\plant\flower\plant_flower07.jpg          	1	3	1	plant_flower07.jpg   	plant    	6	flower    	16	flower07    	166	alive    	1	still	0	natural 	1	n	0	0    	 	0.0	0	125.274749299977	125.374653999927	0.0999046999495476
112708	100	194	stimuli\plant2\moss\plant_moss03.jpg             	1	3	1	plant_moss03.jpg     	plant2   	7	moss      	25	moss03      	252	alive    	1	still	0	natural 	1	n	0	0    	 	0.0	0	125.42474510008499	125.52471560007	0.09997049998492001
112858	100	195	stimuli\plant\cactus\plant_cactus09.jpg          	1	3	1	plant_cactus09.jpg   	plant    	6	cactus    	4	cactus09    	48	alive    	1	still	0	natural 	1	n	0	0    	 	0.0	0	125.57485130010201	125.674612500006	0.0997611999046057
113008	100	196	stimuli\nonmovArt\clothespeg\nma_clothespeg06.jpg	1	3	1	nma_clothespeg06.jpg 	nonmovArt	4	clothespeg	8	clothespeg06	85	not_alive	0	still	0	artefact	0	n	0	0    	 	0.0	0	125.72474019997802	125.824642200023	0.0999020000454038
113158	100	197	stimuli\animals2\whale\animal_whale05.jpg        	1	3	1	animal_whale05.jpg   	animals2 	1	whale     	39	whale05     	394	alive    	1	moves	1	natural 	1	n	0	0    	 	0.0	0	125.874735499965	125.974651699886	0.099916199920699
113308	100	198	stimuli\nonmovArt\bench\nma_bench10.jpg          	1	3	1	nma_bench10.jpg      	nonmovArt	4	bench     	1	bench10     	19	not_alive	0	still	0	artefact	0	n	0	0    	 	0.0	0	126.024735999992	126.12463320000099	0.0998972000088542
113458	100	199	stimuli\plant2\moss\plant_moss07.jpg             	1	3	1	plant_moss07.jpg     	plant2   	7	moss      	25	moss07      	256	alive    	1	still	0	natural 	1	n	1	0    	 	0.0	0	126.174733099993	126.27464070008101	0.099907600088045
113608	100	200	stimuli\animals\eagle\animal_eagle06.jpg         	1	3	1	animal_eagle06.jpg   	animals  	0	eagle     	13	eagle06     	135	alive    	1	moves	1	natural 	1	n	0	0    	 	0.0	0	126.32474489998998	126.42462690011601	0.0998820001259446
113758	100	201	stimuli\nonmovArt\clothespeg\nma_clothespeg03.jpg	1	3	1	nma_clothespeg03.jpg 	nonmovArt	4	clothespeg	8	clothespeg03	82	not_alive	0	still	0	artefact	0	n	0	1    	f	0.304514799965545	1	126.474733900046	126.57462300011001	0.0998891000635922
113908	100	202	stimuli\nonmovNat\cliff\nmn_cliff01.jpg          	1	3	1	nmn_cliff01.jpg      	nonmovNat	5	cliff     	7	cliff01     	70	not_alive	0	still	0	natural 	1	n	0	0    	 	0.0	0	126.624747500056	126.72462560003599	0.0998780999798327
114058	100	203	stimuli\movArt\bus\ma_bus01.jpg                  	1	3	1	ma_bus01.jpg         	movArt   	2	bus       	3	bus01       	30	not_alive	0	moves	1	artefact	0	n	0	0    	 	0.0	0	126.77473780000601	126.874632799998	0.0998949999921023
114208	100	204	stimuli\animals\dog\animal_dog10.jpg             	1	3	1	animal_dog10.jpg     	animals  	0	dog       	11	dog10       	119	alive    	1	moves	1	natural 	1	n	0	0    	 	0.0	0	126.924764000112	127.024622899946	0.0998588998336345
114358	100	205	stimuli\plant\tree\plant_tree04.jpg              	1	3	1	plant_tree04.jpg     	plant    	6	tree      	35	tree04      	353	alive    	1	still	0	natural 	1	n	0	0    	 	0.0	0	127.07475430006201	127.174630699912	0.0998763998504728
114508	100	206	stimuli\animals2\tiger\animal_tiger04.jpg        	1	3	1	animal_tiger04.jpg   	animals2 	1	tiger     	33	tiger04     	333	alive    	1	moves	1	natural 	1	n	0	0    	 	0.0	0	127.22475049994	127.324623400113	0.099872900173068
114658	100	207	stimuli\plant\vine\plant_vine10.jpg              	1	3	1	plant_vine10.jpg     	plant    	6	vine      	36	vine10      	369	alive    	1	still	0	natural 	1	n	0	0    	 	0.0	0	127.374726400012	127.474623499904	0.0998970998916775
114808	100	208	stimuli\nonmovArt\mug\nma_mug07.jpg              	1	3	1	nma_mug07.jpg        	nonmovArt	4	mug       	26	mug07       	266	not_alive	0	still	0	artefact	0	n	0	0    	 	0.0	0	127.524721900001	127.62463259999599	0.0999106999952346
114958	100	209	stimuli\nonmovArt\lock\nma_lock05.jpg            	1	3	1	nma_lock05.jpg       	nonmovArt	4	lock      	24	lock05      	244	not_alive	0	still	0	artefact	0	n	0	0    	 	0.0	0	127.67472989996901	127.774620600045	0.0998907000757753
115108	100	210	stimuli\plant\vine\plant_vine02.jpg              	1	3	1	plant_vine02.jpg     	plant    	6	vine      	36	vine02      	361	alive    	1	still	0	natural 	1	n	0	0    	 	0.0	0	127.82471850002199	127.92461000010401	0.0998915000818669
115258	100	211	stimuli\nonmovNat\shell\nmn_shell09.jpg          	1	3	1	nmn_shell09.jpg      	nonmovNat	5	shell     	32	shell09     	328	not_alive	0	still	0	natural 	1	n	0	0    	 	0.0	0	127.974730700022	128.074602599954	0.0998718999326229
115408	100	212	stimuli\plant\grass\plant_grass10.jpg            	1	3	1	plant_grass10.jpg    	plant    	6	grass     	17	grass10     	179	alive    	1	still	0	natural 	1	n	0	0    	 	0.0	0	128.124721500091	128.22457890003	0.09985739993862801
115558	100	213	stimuli\movNat\hotspring\mn_hotspring10.jpg      	1	3	1	mn_hotspring10.jpg   	movNat   	3	hotspring 	21	hotspring10 	219	not_alive	0	moves	1	natural 	1	n	0	0    	 	0.0	0	128.274707400007	128.374620199902	0.0999127998948097
115708	100	214	stimuli\nonmovArt\bench\nma_bench10.jpg          	1	3	1	nma_bench10.jpg      	nonmovArt	4	bench     	1	bench10     	19	not_alive	0	still	0	artefact	0	n	0	0    	 	0.0	0	128.42472680006202	128.524605900049	0.0998790999874472
115858	100	215	stimuli\animals2\bee\animal_bee05.jpg            	1	3	1	animal_bee05.jpg     	animals2 	1	bee       	0	bee05       	4	alive    	1	moves	1	natural 	1	n	0	0    	 	0.0	0	128.57471120008302	128.674612799892	0.0999015998095274
116008	100	216	stimuli\animals\dog\animal_dog01.jpg             	1	3	1	animal_dog01.jpg     	animals  	0	dog       	11	dog01       	110	alive    	1	moves	1	natural 	1	n	0	0    	 	0.0	0	128.724734300049	128.824610299896	0.099875999847427
116158	100	217	stimuli\nonmovArt\headphones\nma_headphones05.jpg	1	3	1	nma_headphones05.jpg 	nonmovArt	4	headphones	18	headphones05	184	not_alive	0	still	0	artefact	0	n	0	0    	 	0.0	0	128.874706200091	128.974612599937	0.0999063998460769
116308	100	218	stimuli\nonmovNat\crystal\nmn_crystal10.jpg      	1	3	1	nmn_crystal10.jpg    	nonmovNat	5	crystal   	10	crystal10   	109	not_alive	0	still	0	natural 	1	n	0	0    	 	0.0	0	129.024766999995	129.124615299981	0.0998482999857515
116458	100	219	stimuli\plant\cactus\plant_cactus07.jpg          	1	3	1	plant_cactus07.jpg   	plant    	6	cactus    	4	cactus07    	46	alive    	1	still	0	natural 	1	n	0	0    	 	0.0	0	129.17470870004	129.27460930007499	0.0999006000347435
116608	100	220	stimuli\movArt\car\ma_car08.jpg                  	1	3	1	ma_car08.jpg         	movArt   	2	car       	5	car08       	57	not_alive	0	moves	1	artefact	0	n	0	0    	 	0.0	0	129.32471380010202	129.424594199983	0.0998803998809307
116758	100	221	stimuli\animals2\tiger\animal_tiger01.jpg        	1	3	1	animal_tiger01.jpg   	animals2 	1	tiger     	33	tiger01     	330	alive    	1	moves	1	natural 	1	n	0	0    	 	0.0	0	129.474691600073	129.574603700079	0.0999121000058949
116908	100	222	stimuli\animals2\whale\animal_whale10.jpg        	1	3	1	animal_whale10.jpg   	animals2 	1	whale     	39	whale10     	399	alive    	1	moves	1	natural 	1	n	0	0    	 	0.0	0	129.624719999963	129.724598000059	0.0998780000954866
117058	100	223	stimuli\plant\cactus\plant_cactus09.jpg          	1	3	1	plant_cactus09.jpg   	plant    	6	cactus    	4	cactus09    	48	alive    	1	still	0	natural 	1	n	0	0    	 	0.0	0	129.77469719993	129.874598700088	0.0999015001580119
117208	100	224	stimuli\movArt\helicopter\ma_helicopter09.jpg    	1	3	1	ma_helicopter09.jpg  	movArt   	2	helicopter	19	helicopter09	198	not_alive	0	moves	1	artefact	0	n	0	0    	 	0.0	0	129.924694000045	130.024595800089	0.0999018000438809
117358	100	225	stimuli\animals2\pigeon\animal_pigeon03.jpg      	1	3	1	animal_pigeon03.jpg  	animals2 	1	pigeon    	28	pigeon03    	282	alive    	1	moves	1	natural 	1	n	0	0    	 	0.0	0	130.074706000043	130.174578099977	0.0998720999341458
117508	100	226	stimuli\nonmovArt\mug\nma_mug10.jpg              	1	3	1	nma_mug10.jpg        	nonmovArt	4	mug       	26	mug10       	269	not_alive	0	still	0	artefact	0	n	0	0    	 	0.0	0	130.22470390005	130.324594399892	0.0998904998414218
117658	100	227	stimuli\movNat\fire\mn_fire08.jpg                	1	3	1	mn_fire08.jpg        	movNat   	3	fire      	15	fire08      	157	not_alive	0	moves	1	natural 	1	n	0	0    	 	0.0	0	130.374677899992	130.474588300101	0.0999104001093655
117808	100	228	stimuli\plant\tree\plant_tree10.jpg              	1	3	1	plant_tree10.jpg     	plant    	6	tree      	35	tree10      	359	alive    	1	still	0	natural 	1	n	0	0    	 	0.0	0	130.524703100091	130.624606000027	0.0999028999358415
117958	100	229	stimuli\nonmovNat\crystal\nmn_crystal08.jpg      	1	3	1	nmn_crystal08.jpg    	nonmovNat	5	crystal   	10	crystal08   	107	not_alive	0	still	0	natural 	1	n	0	0    	 	0.0	0	130.674688699888	130.774630599888	0.0999418999999761
118108	100	230	stimuli\movArt\bus\ma_bus07.jpg                  	1	3	1	ma_bus07.jpg         	movArt   	2	bus       	3	bus07       	36	not_alive	0	moves	1	artefact	0	n	0	0    	 	0.0	0	130.824834000086	130.924586799927	0.099752799840644
118258	100	231	stimuli\movNat\hotspring\mn_hotspring10.jpg      	1	3	1	mn_hotspring10.jpg   	movNat   	3	hotspring 	21	hotspring10 	219	not_alive	0	moves	1	natural 	1	n	0	0    	 	0.0	0	130.974690499948	131.07460410008198	0.0999136001337319
118408	100	232	stimuli\animals2\lemur\animal_lemur10.jpg        	1	3	1	animal_lemur10.jpg   	animals2 	1	lemur     	23	lemur10     	239	alive    	1	moves	1	natural 	1	n	0	0    	 	0.0	0	131.124647000106	131.22459509991998	0.0999480998143553
118558	100	233	stimuli\plant2\fern\plant_fern05.jpg             	1	3	1	plant_fern05.jpg     	plant2   	7	fern      	14	fern05      	144	alive    	1	still	0	natural 	1	n	0	0    	 	0.0	0	131.27468120004102	131.374593199929	0.0999119998887181
118708	100	234	stimuli\plant\grass\plant_grass03.jpg            	1	3	1	plant_grass03.jpg    	plant    	6	grass     	17	grass03     	172	alive    	1	still	0	natural 	1	n	0	0    	 	0.0	0	131.42468159995002	131.524589099921	0.0999074999708682
118858	100	235	stimuli\nonmovNat\sand\nmn_sand10.jpg            	1	3	1	nmn_sand10.jpg       	nonmovNat	5	sand      	31	sand10      	319	not_alive	0	still	0	natural 	1	n	0	0    	 	0.0	0	131.574683800107	131.674593300093	0.0999094999860972
119008	100	236	stimuli\animals\cat\animal_cat05.jpg             	1	3	1	animal_cat05.jpg     	animals  	0	cat       	6	cat05       	64	alive    	1	moves	1	natural 	1	n	0	0    	 	0.0	0	131.724675700069	131.824812399922	0.100136699853465
119158	100	237	stimuli\movArt\train\ma_train03.jpg              	1	3	1	ma_train03.jpg       	movArt   	2	train     	34	train03     	342	not_alive	0	moves	1	artefact	0	n	0	0    	 	0.0	0	131.874688199954	131.974571600091	0.0998834001366049
119308	100	238	stimuli\animals\eagle\animal_eagle10.jpg         	1	3	1	animal_eagle10.jpg   	animals  	0	eagle     	13	eagle10     	139	alive    	1	moves	1	natural 	1	n	0	0    	 	0.0	0	132.02468840009502	132.124578800052	0.0998903999570757
119458	100	239	stimuli\animals2\bee\animal_bee02.jpg            	1	3	1	animal_bee02.jpg     	animals2 	1	bee       	0	bee02       	1	alive    	1	moves	1	natural 	1	n	0	0    	 	0.0	0	132.17467490001602	132.274568299996	0.0998933999799192
122592	100	240	stimuli\plant2\palmtree\plant_palmtree01.jpg     	1	4	1	plant_palmtree01.jpg 	plant2   	7	palmtree  	27	palmtree01  	270	alive    	1	still	0	natural 	1	n	0	0    	 	0.0	0	135.30801960011001	135.40788369998302	0.0998640998732298
122742	100	241	stimuli\nonmovNat\shell\nmn_shell04.jpg          	1	4	1	nmn_shell04.jpg      	nonmovNat	5	shell     	32	shell04     	323	not_alive	0	still	0	natural 	1	n	0	0    	 	0.0	0	135.457991899923	135.557893000077	0.0999011001549661
122892	100	242	stimuli\animals\horse\animal_horse08.jpg         	1	4	1	animal_horse08.jpg   	animals  	0	horse     	20	horse08     	207	alive    	1	moves	1	natural 	1	n	0	0    	 	0.0	0	135.607981000096	135.708055699943	0.10007469984702802
123042	100	243	stimuli\movArt\boat\ma_boat10.jpg                	1	4	1	ma_boat10.jpg        	movArt   	2	boat      	2	boat10      	29	not_alive	0	moves	1	artefact	0	n	0	0    	 	0.0	0	135.75798109988702	135.85788300004802	0.0999019001610577
123192	100	244	stimuli\plant2\moss\plant_moss10.jpg             	1	4	1	plant_moss10.jpg     	plant2   	7	moss      	25	moss10      	259	alive    	1	still	0	natural 	1	n	0	0    	 	0.0	0	135.907971600071	136.007870299974	0.0998986999038606
123342	100	245	stimuli\plant\vine\plant_vine09.jpg              	1	4	1	plant_vine09.jpg     	plant    	6	vine      	36	vine09      	368	alive    	1	still	0	natural 	1	n	0	0    	 	0.0	0	136.057975400006	136.157864900073	0.09988950006663799
123492	100	246	stimuli\animals2\lemur\animal_lemur01.jpg        	1	4	1	animal_lemur01.jpg   	animals2 	1	lemur     	23	lemur01     	230	alive    	1	moves	1	natural 	1	n	0	0    	 	0.0	0	136.207970200107	136.307888400042	0.099918199935928
123642	100	247	stimuli\animals\eagle\animal_eagle05.jpg         	1	4	1	animal_eagle05.jpg   	animals  	0	eagle     	13	eagle05     	134	alive    	1	moves	1	natural 	1	n	0	0    	 	0.0	0	136.35796470008802	136.457874200074	0.0999094999860972
123792	100	248	stimuli\movNat\waterfall\mn_waterfall01.jpg      	1	4	1	mn_waterfall01.jpg   	movNat   	3	waterfall 	37	waterfall01 	370	not_alive	0	moves	1	natural 	1	n	0	0    	 	0.0	0	136.507969999919	136.607855800074	0.0998858001548796
123942	100	249	stimuli\movNat\river\mn_river07.jpg              	1	4	1	mn_river07.jpg       	movNat   	3	river     	29	river07     	296	not_alive	0	moves	1	natural 	1	n	0	0    	 	0.0	0	136.657984100049	136.757866699947	0.0998825998976826
124092	100	250	stimuli\plant\vine\plant_vine09.jpg              	1	4	1	plant_vine09.jpg     	plant    	6	vine      	36	vine09      	368	alive    	1	still	0	natural 	1	n	0	0    	 	0.0	0	136.80797259998502	136.907860999927	0.0998883999418467
124241	100	251	stimuli\plant2\lemontree\plant_lemontree10.jpg   	1	4	1	plant_lemontree10.jpg	plant2   	7	lemontree 	22	lemontree10 	229	alive    	1	still	0	natural 	1	n	0	0    	 	0.0	0	136.95795479998898	137.057869300013	0.0999145000241696
124392	100	252	stimuli\movArt\helicopter\ma_helicopter10.jpg    	1	4	1	ma_helicopter10.jpg  	movArt   	2	helicopter	19	helicopter10	199	not_alive	0	moves	1	artefact	0	n	0	0    	 	0.0	0	137.10798919992502	137.207858900074	0.0998697001487016
124542	100	253	stimuli\animals\eagle\animal_eagle02.jpg         	1	4	1	animal_eagle02.jpg   	animals  	0	eagle     	13	eagle02     	131	alive    	1	moves	1	natural 	1	n	0	0    	 	0.0	0	137.257962600095	137.357868599938	0.0999059998430311
124692	100	254	stimuli\movArt\train\ma_train02.jpg              	1	4	1	ma_train02.jpg       	movArt   	2	train     	34	train02     	341	not_alive	0	moves	1	artefact	0	n	1	0    	 	0.0	0	137.40798659995198	137.507869499968	0.0998829000163823
124842	100	255	stimuli\animals\cat\animal_cat05.jpg             	1	4	1	animal_cat05.jpg     	animals  	0	cat       	6	cat05       	64	alive    	1	moves	1	natural 	1	n	0	0    	 	0.0	0	137.55796450004	137.657861500047	0.0998970000073313
124992	100	256	stimuli\nonmovNat\rock\nmn_rock03.jpg            	1	4	1	nmn_rock03.jpg       	nonmovNat	5	rock      	30	rock03      	302	not_alive	0	still	0	natural 	1	n	0	1    	f	0.29206999996677	1	137.708019699901	137.807857099921	0.0998374000191688
125142	100	257	stimuli\plant\tree\plant_tree08.jpg              	1	4	1	plant_tree08.jpg     	plant    	6	tree      	35	tree08      	357	alive    	1	still	0	natural 	1	n	0	0    	 	0.0	0	137.857953200117	137.957830799976	0.0998775998596102
125292	100	258	stimuli\movNat\river\mn_river04.jpg              	1	4	1	mn_river04.jpg       	movNat   	3	river     	29	river04     	293	not_alive	0	moves	1	natural 	1	n	1	0    	 	0.0	0	138.00796029996098	138.107091499958	0.0991311999969184
125441	100	259	stimuli\plant\grass\plant_grass01.jpg            	1	4	1	plant_grass01.jpg    	plant    	6	grass     	17	grass01     	170	alive    	1	still	0	natural 	1	n	0	0    	 	0.0	0	138.157098399941	138.257088700077	0.099990300135687
125591	100	260	stimuli\nonmovArt\mug\nma_mug05.jpg              	1	4	1	nma_mug05.jpg        	nonmovArt	4	mug       	26	mug05       	264	not_alive	0	still	0	artefact	0	n	0	1    	f	0.391120699932799	1	138.30710049998	138.407086699968	0.0999861999880522
125741	100	261	stimuli\plant2\fern\plant_fern09.jpg             	1	4	1	plant_fern09.jpg     	plant2   	7	fern      	14	fern09      	148	alive    	1	still	0	natural 	1	n	0	0    	 	0.0	0	138.457099500112	138.55708430009	0.0999847999773919
125891	100	262	stimuli\nonmovNat\rock\nmn_rock05.jpg            	1	4	1	nmn_rock05.jpg       	nonmovNat	5	rock      	30	rock05      	304	not_alive	0	still	0	natural 	1	n	0	0    	 	0.0	0	138.607109900098	138.70711300009899	0.10000310000032199
126041	100	263	stimuli\plant2\clover\plant_clover04.jpg         	1	4	1	plant_clover04.jpg   	plant2   	7	clover    	9	clover04    	93	alive    	1	still	0	natural 	1	n	0	0    	 	0.0	0	138.757094600005	138.857085400028	0.0999908000230789
126191	100	264	stimuli\animals2\tiger\animal_tiger08.jpg        	1	4	1	animal_tiger08.jpg   	animals2 	1	tiger     	33	tiger08     	337	alive    	1	moves	1	natural 	1	n	0	0    	 	0.0	0	138.90709610004	139.007082799915	0.0999866998754441
126341	100	265	stimuli\nonmovArt\headphones\nma_headphones02.jpg	1	4	1	nma_headphones02.jpg 	nonmovArt	4	headphones	18	headphones02	181	not_alive	0	still	0	artefact	0	n	0	0    	 	0.0	0	139.05709200003201	139.15707829990401	0.0999862998723983
126491	100	266	stimuli\movNat\waterfall\mn_waterfall04.jpg      	1	4	1	mn_waterfall04.jpg   	movNat   	3	waterfall 	37	waterfall04 	373	not_alive	0	moves	1	natural 	1	n	0	0    	 	0.0	0	139.20710020000098	139.30709140002702	0.0999912000261247
126641	100	267	stimuli\nonmovNat\shell\nmn_shell03.jpg          	1	4	1	nmn_shell03.jpg      	nonmovNat	5	shell     	32	shell03     	322	not_alive	0	still	0	natural 	1	n	0	0    	 	0.0	0	139.357088499935	139.457076299936	0.0999878000002354
126791	100	268	stimuli\animals\cat\animal_cat06.jpg             	1	4	1	animal_cat06.jpg     	animals  	0	cat       	6	cat06       	65	alive    	1	moves	1	natural 	1	n	0	0    	 	0.0	0	139.50708799995502	139.607076599961	0.09998860000632699
126941	100	269	stimuli\nonmovArt\headphones\nma_headphones02.jpg	1	4	1	nma_headphones02.jpg 	nonmovArt	4	headphones	18	headphones02	181	not_alive	0	still	0	artefact	0	n	0	0    	 	0.0	0	139.657084600069	139.757075699978	0.0999910999089479
127091	100	270	stimuli\nonmovArt\lock\nma_lock08.jpg            	1	4	1	nma_lock08.jpg       	nonmovArt	4	lock      	24	lock08      	247	not_alive	0	still	0	artefact	0	n	0	0    	 	0.0	0	139.807085500099	139.907075100113	0.0999896000139415
127241	100	271	stimuli\plant2\palmtree\plant_palmtree08.jpg     	1	4	1	plant_palmtree08.jpg 	plant2   	7	palmtree  	27	palmtree08  	277	alive    	1	still	0	natural 	1	n	0	0    	 	0.0	0	139.95708490000098	140.057072900003	0.0999880000017583
127391	100	272	stimuli\animals\horse\animal_horse02.jpg         	1	4	1	animal_horse02.jpg   	animals  	0	horse     	20	horse02     	201	alive    	1	moves	1	natural 	1	n	0	0    	 	0.0	0	140.10708249989	140.20707329991302	0.0999908000230789
127541	100	273	stimuli\nonmovNat\rock\nmn_rock01.jpg            	1	4	1	nmn_rock01.jpg       	nonmovNat	5	rock      	30	rock01      	300	not_alive	0	still	0	natural 	1	n	0	0    	 	0.0	0	140.257080399897	140.35706620011499	0.0999858002178371
127691	100	274	stimuli\plant\cactus\plant_cactus01.jpg          	1	4	1	plant_cactus01.jpg   	plant    	6	cactus    	4	cactus01    	40	alive    	1	still	0	natural 	1	n	0	0    	 	0.0	0	140.407100300072	140.507067899918	0.0999675998464226
127841	100	275	stimuli\nonmovArt\bench\nma_bench05.jpg          	1	4	1	nma_bench05.jpg      	nonmovArt	4	bench     	1	bench05     	14	not_alive	0	still	0	artefact	0	n	0	0    	 	0.0	0	140.557076199912	140.657067199936	0.0999910000246018
127991	100	276	stimuli\plant2\clover\plant_clover07.jpg         	1	4	1	plant_clover07.jpg   	plant2   	7	clover    	9	clover07    	96	alive    	1	still	0	natural 	1	n	0	0    	 	0.0	0	140.707131600007	140.807065600064	0.0999340000562369
128141	100	277	stimuli\nonmovNat\cliff\nmn_cliff08.jpg          	1	4	1	nmn_cliff08.jpg      	nonmovNat	5	cliff     	7	cliff08     	77	not_alive	0	still	0	natural 	1	n	0	0    	 	0.0	0	140.857073599938	140.95706159994	0.0999880000017583
128291	100	278	stimuli\movArt\bus\ma_bus09.jpg                  	1	4	1	ma_bus09.jpg         	movArt   	2	bus       	3	bus09       	38	not_alive	0	moves	1	artefact	0	n	0	0    	 	0.0	0	141.007083100034	141.107060299953	0.0999771999195218
128441	100	279	stimuli\nonmovArt\clothespeg\nma_clothespeg03.jpg	1	4	1	nma_clothespeg03.jpg 	nonmovArt	4	clothespeg	8	clothespeg03	82	not_alive	0	still	0	artefact	0	n	0	0    	 	0.0	0	141.157079400029	141.257063699886	0.0999842998571694
128591	100	280	stimuli\nonmovArt\mug\nma_mug08.jpg              	1	4	1	nma_mug08.jpg        	nonmovArt	4	mug       	26	mug08       	267	not_alive	0	still	0	artefact	0	n	0	0    	 	0.0	0	141.307071899995	141.407060200116	0.099988300120458
128741	100	281	stimuli\movArt\car\ma_car09.jpg                  	1	4	1	ma_car09.jpg         	movArt   	2	car       	5	car09       	58	not_alive	0	moves	1	artefact	0	n	0	0    	 	0.0	0	141.457069300115	141.557047399925	0.0999780998099595
128891	100	282	stimuli\plant\tree\plant_tree01.jpg              	1	4	1	plant_tree01.jpg     	plant    	6	tree      	35	tree01      	350	alive    	1	still	0	natural 	1	n	0	0    	 	0.0	0	141.607066900004	141.70708610001	0.1000192000065
129041	100	283	stimuli\animals2\pigeon\animal_pigeon10.jpg      	1	4	1	animal_pigeon10.jpg  	animals2 	1	pigeon    	28	pigeon10    	289	alive    	1	moves	1	natural 	1	n	0	0    	 	0.0	0	141.757088900078	141.857054699911	0.0999657998327165
129191	100	284	stimuli\plant2\lemontree\plant_lemontree07.jpg   	1	4	1	plant_lemontree07.jpg	plant2   	7	lemontree 	22	lemontree07 	226	alive    	1	still	0	natural 	1	n	0	0    	 	0.0	0	141.907063900027	142.007054799935	0.099990899907425
129341	100	285	stimuli\movArt\train\ma_train06.jpg              	1	4	1	ma_train06.jpg       	movArt   	2	train     	34	train06     	345	not_alive	0	moves	1	artefact	0	n	0	0    	 	0.0	0	142.057063899934	142.157051400049	0.0999875001143664
129491	100	286	stimuli\movNat\waves\mn_waves07.jpg              	1	4	1	mn_waves07.jpg       	movNat   	3	waves     	38	waves07     	386	not_alive	0	moves	1	natural 	1	n	0	0    	 	0.0	0	142.207061199937	142.307050799951	0.0999896000139415
129641	100	287	stimuli\movArt\helicopter\ma_helicopter07.jpg    	1	4	1	ma_helicopter07.jpg  	movArt   	2	helicopter	19	helicopter07	196	not_alive	0	moves	1	artefact	0	n	0	0    	 	0.0	0	142.357063099975	142.457049299963	0.0999861999880522
129791	100	288	stimuli\animals2\lemur\animal_lemur06.jpg        	1	4	1	animal_lemur06.jpg   	animals2 	1	lemur     	23	lemur06     	235	alive    	1	moves	1	natural 	1	n	0	0    	 	0.0	0	142.507058500079	142.607045700075	0.0999871999956667
129941	100	289	stimuli\nonmovNat\crystal\nmn_crystal03.jpg      	1	4	1	nmn_crystal03.jpg    	nonmovNat	5	crystal   	10	crystal03   	102	not_alive	0	still	0	natural 	1	n	0	0    	 	0.0	0	142.65705489995898	142.757052100031	0.0999972000718116
130091	100	290	stimuli\nonmovArt\clothespeg\nma_clothespeg01.jpg	1	4	1	nma_clothespeg01.jpg 	nonmovArt	4	clothespeg	8	clothespeg01	80	not_alive	0	still	0	artefact	0	n	0	0    	 	0.0	0	142.807089200011	142.907045299886	0.0999560998752713
130241	100	291	stimuli\animals\cat\animal_cat09.jpg             	1	4	1	animal_cat09.jpg     	animals  	0	cat       	6	cat09       	68	alive    	1	moves	1	natural 	1	n	0	0    	 	0.0	0	142.957054700004	143.057051500073	0.0999968000687658
130391	100	292	stimuli\plant2\moss\plant_moss03.jpg             	1	4	1	plant_moss03.jpg     	plant2   	7	moss      	25	moss03      	252	alive    	1	still	0	natural 	1	n	0	0    	 	0.0	0	143.10705240001002	143.20704189990602	0.0999894998967647
130541	100	293	stimuli\animals\dolphin\animal_dolphin07.jpg     	1	4	1	animal_dolphin07.jpg 	animals  	0	dolphin   	12	dolphin07   	126	alive    	1	moves	1	natural 	1	n	0	0    	 	0.0	0	143.257052199915	143.357040100032	0.0999879001174122
130691	100	294	stimuli\animals2\whale\animal_whale09.jpg        	1	4	1	animal_whale09.jpg   	animals2 	1	whale     	39	whale09     	398	alive    	1	moves	1	natural 	1	n	0	0    	 	0.0	0	143.407049800036	143.50703929993298	0.0999894998967647
130841	100	295	stimuli\movArt\car\ma_car05.jpg                  	1	4	1	ma_car05.jpg         	movArt   	2	car       	5	car05       	54	not_alive	0	moves	1	artefact	0	n	0	0    	 	0.0	0	143.557046500035	143.657038300065	0.0999918000306934
130991	100	296	stimuli\nonmovNat\cliff\nmn_cliff02.jpg          	1	4	1	nmn_cliff02.jpg      	nonmovNat	5	cliff     	7	cliff02     	71	not_alive	0	still	0	natural 	1	n	0	0    	 	0.0	0	143.70707700005698	143.80703469994498	0.0999576998874545
131141	100	297	stimuli\plant\flower\plant_flower06.jpg          	1	4	1	plant_flower06.jpg   	plant    	6	flower    	16	flower06    	165	alive    	1	still	0	natural 	1	n	0	0    	 	0.0	0	143.857043599943	143.95703359996	0.0999900000169873
131291	100	298	stimuli\nonmovNat\cliff\nmn_cliff05.jpg          	1	4	1	nmn_cliff05.jpg      	nonmovNat	5	cliff     	7	cliff05     	74	not_alive	0	still	0	natural 	1	n	1	0    	 	0.0	0	144.007043000078	144.107033600099	0.099990600021556
131441	100	299	stimuli\movNat\waves\mn_waves01.jpg              	1	4	1	mn_waves01.jpg       	movNat   	3	waves     	38	waves01     	380	not_alive	0	moves	1	natural 	1	n	0	0    	 	0.0	0	144.157040999969	144.257032199996	0.0999912000261247
131591	100	300	stimuli\nonmovNat\crystal\nmn_crystal05.jpg      	1	4	1	nmn_crystal05.jpg    	nonmovNat	5	crystal   	10	crystal05   	104	not_alive	0	still	0	natural 	1	n	0	1    	f	0.39198570000007704	1	144.307038899977	144.40703039988898	0.0999914999119937
131741	100	301	stimuli\nonmovArt\lock\nma_lock04.jpg            	1	4	1	nma_lock04.jpg       	nonmovArt	4	lock      	24	lock04      	243	not_alive	0	still	0	artefact	0	n	0	0    	 	0.0	0	144.45704020001003	144.557035000063	0.0999948000535368
131891	100	302	stimuli\movArt\bus\ma_bus09.jpg                  	1	4	1	ma_bus09.jpg         	movArt   	2	bus       	3	bus09       	38	not_alive	0	moves	1	artefact	0	n	0	0    	 	0.0	0	144.607056699926	144.707053499995	0.0999968000687658
132041	100	303	stimuli\animals\dolphin\animal_dolphin01.jpg     	1	4	1	animal_dolphin01.jpg 	animals  	0	dolphin   	12	dolphin01   	120	alive    	1	moves	1	natural 	1	n	0	0    	 	0.0	0	144.757057100069	144.857025099918	0.0999679998494684
132191	100	304	stimuli\movNat\waterfall\mn_waterfall07.jpg      	1	4	1	mn_waterfall07.jpg   	movNat   	3	waterfall 	37	waterfall07 	376	not_alive	0	moves	1	natural 	1	n	0	0    	 	0.0	0	144.907036100049	145.007026500069	0.0999904000200331
132341	100	305	stimuli\plant\tree\plant_tree06.jpg              	1	4	1	plant_tree06.jpg     	plant    	6	tree      	35	tree06      	355	alive    	1	still	0	natural 	1	n	0	0    	 	0.0	0	145.05703460006	145.15702309995	0.0999884998891502
132491	100	306	stimuli\animals2\lemur\animal_lemur04.jpg        	1	4	1	animal_lemur04.jpg   	animals2 	1	lemur     	23	lemur04     	233	alive    	1	moves	1	natural 	1	n	0	0    	 	0.0	0	145.207032500068	145.307020300068	0.0999878000002354
132641	100	307	stimuli\animals\horse\animal_horse03.jpg         	1	4	1	animal_horse03.jpg   	animals  	0	horse     	20	horse03     	202	alive    	1	moves	1	natural 	1	n	0	0    	 	0.0	0	145.357028600061	145.457018899964	0.0999902999028563
132791	100	308	stimuli\movArt\helicopter\ma_helicopter04.jpg    	1	4	1	ma_helicopter04.jpg  	movArt   	2	helicopter	19	helicopter04	193	not_alive	0	moves	1	artefact	0	n	0	0    	 	0.0	0	145.507028500084	145.60701830009899	0.0999898000154644
132941	100	309	stimuli\movArt\bus\ma_bus10.jpg                  	1	4	1	ma_bus10.jpg         	movArt   	2	bus       	3	bus10       	39	not_alive	0	moves	1	artefact	0	n	0	0    	 	0.0	0	145.65702709998	145.75704930000902	0.10002220002934299
133091	100	310	stimuli\animals\eagle\animal_eagle04.jpg         	1	4	1	animal_eagle04.jpg   	animals  	0	eagle     	13	eagle04     	133	alive    	1	moves	1	natural 	1	n	0	0    	 	0.0	0	145.807033400051	145.907013900112	0.0999805000610649
133241	100	311	stimuli\nonmovArt\mug\nma_mug09.jpg              	1	4	1	nma_mug09.jpg        	nonmovArt	4	mug       	26	mug09       	268	not_alive	0	still	0	artefact	0	n	0	0    	 	0.0	0	145.957026399905	146.057013100013	0.0999867001082748
133391	100	312	stimuli\plant\grass\plant_grass10.jpg            	1	4	1	plant_grass10.jpg    	plant    	6	grass     	17	grass10     	179	alive    	1	still	0	natural 	1	n	0	0    	 	0.0	0	146.107022000011	146.20700960001002	0.0999875999987125
133541	100	313	stimuli\nonmovArt\lock\nma_lock09.jpg            	1	4	1	nma_lock09.jpg       	nonmovArt	4	lock      	24	lock09      	248	not_alive	0	still	0	artefact	0	n	0	0    	 	0.0	0	146.257018999895	146.357020800002	0.10000180010683801
133691	100	314	stimuli\plant2\fern\plant_fern09.jpg             	1	4	1	plant_fern09.jpg     	plant2   	7	fern      	14	fern09      	148	alive    	1	still	0	natural 	1	n	0	0    	 	0.0	0	146.407023400068	146.50700829993	0.09998489986173802
133841	100	315	stimuli\movNat\hotspring\mn_hotspring03.jpg      	1	4	1	mn_hotspring03.jpg   	movNat   	3	hotspring 	21	hotspring03 	212	not_alive	0	moves	1	natural 	1	n	0	0    	 	0.0	0	146.557019500062	146.657009900082	0.0999904000200331
133991	100	316	stimuli\animals\dog\animal_dog03.jpg             	1	4	1	animal_dog03.jpg     	animals  	0	dog       	11	dog03       	112	alive    	1	moves	1	natural 	1	n	0	0    	 	0.0	0	146.707066900097	146.80700609996	0.0999391998630017
134141	100	317	stimuli\nonmovNat\sand\nmn_sand07.jpg            	1	4	1	nmn_sand07.jpg       	nonmovNat	5	sand      	31	sand07      	316	not_alive	0	still	0	natural 	1	n	0	0    	 	0.0	0	146.85701399995	146.95700539997802	0.0999914000276476
134291	100	318	stimuli\movNat\fire\mn_fire06.jpg                	1	4	1	mn_fire06.jpg        	movNat   	3	fire      	15	fire06      	155	not_alive	0	moves	1	natural 	1	n	0	0    	 	0.0	0	147.00701549998502	147.10700300009898	0.0999875001143664
134441	100	319	stimuli\movArt\train\ma_train05.jpg              	1	4	1	ma_train05.jpg       	movArt   	2	train     	34	train05     	344	not_alive	0	moves	1	artefact	0	n	0	0    	 	0.0	0	147.157012900105	147.257002400002	0.0999894998967647
139541	100	320	stimuli\animals\dolphin\animal_dolphin06.jpg     	1	5	1	animal_dolphin06.jpg 	animals  	0	dolphin   	12	dolphin06   	125	alive    	1	moves	1	natural 	1	n	0	0    	 	0.0	0	152.257854799973	152.357729000039	0.0998742000665515
139691	100	321	stimuli\plant\vine\plant_vine09.jpg              	1	5	1	plant_vine09.jpg     	plant    	6	vine      	36	vine09      	368	alive    	1	still	0	natural 	1	n	0	0    	 	0.0	0	152.407851499971	152.507698399946	0.0998468999750912
139841	100	322	stimuli\plant2\fern\plant_fern10.jpg             	1	5	1	plant_fern10.jpg     	plant2   	7	fern      	14	fern10      	149	alive    	1	still	0	natural 	1	n	0	0    	 	0.0	0	152.557810900034	152.657719099894	0.099908199859783
139991	100	323	stimuli\animals2\bee\animal_bee09.jpg            	1	5	1	animal_bee09.jpg     	animals2 	1	bee       	0	bee09       	8	alive    	1	moves	1	natural 	1	n	0	0    	 	0.0	0	152.70781729998998	152.80772199994	0.0999046999495476
140141	100	324	stimuli\animals2\pigeon\animal_pigeon06.jpg      	1	5	1	animal_pigeon06.jpg  	animals2 	1	pigeon    	28	pigeon06    	285	alive    	1	moves	1	natural 	1	n	0	0    	 	0.0	0	152.85781629988898	152.957708799979	0.0998925000894814
140291	100	325	stimuli\movNat\river\mn_river01.jpg              	1	5	1	mn_river01.jpg       	movNat   	3	river     	29	river01     	290	not_alive	0	moves	1	natural 	1	n	0	0    	 	0.0	0	153.007814199897	153.107711900026	0.0998977001290768
140441	100	326	stimuli\animals2\tiger\animal_tiger03.jpg        	1	5	1	animal_tiger03.jpg   	animals2 	1	tiger     	33	tiger03     	332	alive    	1	moves	1	natural 	1	n	0	0    	 	0.0	0	153.157804399962	153.257706000004	0.099901600042358
140591	100	327	stimuli\nonmovArt\bench\nma_bench06.jpg          	1	5	1	nma_bench06.jpg      	nonmovArt	4	bench     	1	bench06     	15	not_alive	0	still	0	artefact	0	n	0	0    	 	0.0	0	153.30781690008	153.407679500058	0.0998625999782234
140741	100	328	stimuli\movArt\car\ma_car06.jpg                  	1	5	1	ma_car06.jpg         	movArt   	2	car       	5	car06       	55	not_alive	0	moves	1	artefact	0	n	0	0    	 	0.0	0	153.457805800019	153.55769850011	0.0998927000910043
140891	100	329	stimuli\plant2\palmtree\plant_palmtree04.jpg     	1	5	1	plant_palmtree04.jpg 	plant2   	7	palmtree  	27	palmtree04  	273	alive    	1	still	0	natural 	1	n	0	0    	 	0.0	0	153.607804100029	153.707710599992	0.0999064999632537
141041	100	330	stimuli\movNat\hotspring\mn_hotspring06.jpg      	1	5	1	mn_hotspring06.jpg   	movNat   	3	hotspring 	21	hotspring06 	215	not_alive	0	moves	1	natural 	1	n	0	0    	 	0.0	0	153.757795399986	153.857698699925	0.0999032999388873
141191	100	331	stimuli\animals2\bee\animal_bee02.jpg            	1	5	1	animal_bee02.jpg     	animals2 	1	bee       	0	bee02       	1	alive    	1	moves	1	natural 	1	n	0	0    	 	0.0	0	153.907814899925	154.007709200028	0.0998943001031875
141341	100	332	stimuli\nonmovNat\shell\nmn_shell05.jpg          	1	5	1	nmn_shell05.jpg      	nonmovNat	5	shell     	32	shell05     	324	not_alive	0	still	0	natural 	1	n	0	0    	 	0.0	0	154.05778499995398	154.157695099944	0.0999100999906659
141491	100	333	stimuli\movNat\waves\mn_waves07.jpg              	1	5	1	mn_waves07.jpg       	movNat   	3	waves     	38	waves07     	386	not_alive	0	moves	1	natural 	1	n	0	0    	 	0.0	0	154.207813000074	154.307704699924	0.0998916998505592
141642	100	334	stimuli\nonmovNat\sand\nmn_sand08.jpg            	1	5	1	nmn_sand08.jpg       	nonmovNat	5	sand      	31	sand08      	317	not_alive	0	still	0	natural 	1	n	0	0    	 	0.0	0	154.35789219988501	154.457736199955	0.0998440000694245
141791	100	335	stimuli\movNat\hotspring\mn_hotspring03.jpg      	1	5	1	mn_hotspring03.jpg   	movNat   	3	hotspring 	21	hotspring03 	212	not_alive	0	moves	1	natural 	1	n	0	0    	 	0.0	0	154.507809699979	154.60768430004802	0.0998746000695973
141942	100	336	stimuli\plant\grass\plant_grass09.jpg            	1	5	1	plant_grass09.jpg    	plant    	6	grass     	17	grass09     	178	alive    	1	still	0	natural 	1	n	1	0    	 	0.0	0	154.657858700026	154.757699199952	0.0998404999263584
142091	100	337	stimuli\animals\dog\animal_dog06.jpg             	1	5	1	animal_dog06.jpg     	animals  	0	dog       	11	dog06       	115	alive    	1	moves	1	natural 	1	n	0	0    	 	0.0	0	154.807803499978	154.907695299946	0.0998917999677359
142241	100	338	stimuli\movNat\fire\mn_fire07.jpg                	1	5	1	mn_fire07.jpg        	movNat   	3	fire      	15	fire07      	156	not_alive	0	moves	1	natural 	1	n	0	1    	f	0.291962299961597	1	154.95778810000002	155.05769539997	0.0999072999693453
142391	100	339	stimuli\animals2\whale\animal_whale06.jpg        	1	5	1	animal_whale06.jpg   	animals2 	1	whale     	39	whale06     	395	alive    	1	moves	1	natural 	1	n	1	0    	 	0.0	0	155.107800200116	155.207685800036	0.0998855999205261
142541	100	340	stimuli\animals2\bee\animal_bee03.jpg            	1	5	1	animal_bee03.jpg     	animals2 	1	bee       	0	bee03       	2	alive    	1	moves	1	natural 	1	n	0	0    	 	0.0	0	155.25779110007	155.357692700112	0.099901600042358
142691	100	341	stimuli\animals2\pigeon\animal_pigeon04.jpg      	1	5	1	animal_pigeon04.jpg  	animals2 	1	pigeon    	28	pigeon04    	283	alive    	1	moves	1	natural 	1	n	0	1    	f	0.30017209984362103	1	155.40778489993	155.50768400006902	0.0998991001397371
142841	100	342	stimuli\plant2\moss\plant_moss01.jpg             	1	5	1	plant_moss01.jpg     	plant2   	7	moss      	25	moss01      	250	alive    	1	still	0	natural 	1	n	0	0    	 	0.0	0	155.557802000083	155.657680700067	0.0998786999844014
142991	100	343	stimuli\nonmovArt\headphones\nma_headphones10.jpg	1	5	1	nma_headphones10.jpg 	nonmovArt	4	headphones	18	headphones10	189	not_alive	0	still	0	artefact	0	n	0	0    	 	0.0	0	155.707776699914	155.807669499889	0.0998927999753505
143141	100	344	stimuli\nonmovNat\crystal\nmn_crystal01.jpg      	1	5	1	nmn_crystal01.jpg    	nonmovNat	5	crystal   	10	crystal01   	100	not_alive	0	still	0	natural 	1	n	0	0    	 	0.0	0	155.85779849998698	155.95770099991898	0.0999024999327957
143292	100	345	stimuli\movArt\boat\ma_boat07.jpg                	1	5	1	ma_boat07.jpg        	movArt   	2	boat      	2	boat07      	26	not_alive	0	moves	1	artefact	0	n	0	0    	 	0.0	0	156.00786120002198	156.107787699904	0.0999264998827129
143442	100	346	stimuli\movArt\boat\ma_boat02.jpg                	1	5	1	ma_boat02.jpg        	movArt   	2	boat      	2	boat02      	21	not_alive	0	moves	1	artefact	0	n	0	0    	 	0.0	0	156.157883800101	156.257669500075	0.0997856999747455
143591	100	347	stimuli\nonmovNat\sand\nmn_sand03.jpg            	1	5	1	nmn_sand03.jpg       	nonmovNat	5	sand      	31	sand03      	312	not_alive	0	still	0	natural 	1	n	0	0    	 	0.0	0	156.307784799952	156.4076739999	0.0998891999479383
143741	100	348	stimuli\animals\dog\animal_dog07.jpg             	1	5	1	animal_dog07.jpg     	animals  	0	dog       	11	dog07       	116	alive    	1	moves	1	natural 	1	n	0	0    	 	0.0	0	156.457763799932	156.55767480004602	0.0999110001139342
143891	100	349	stimuli\animals2\tiger\animal_tiger06.jpg        	1	5	1	animal_tiger06.jpg   	animals2 	1	tiger     	33	tiger06     	335	alive    	1	moves	1	natural 	1	n	1	0    	 	0.0	0	156.607737899991	156.707675199956	0.0999372999649494
144041	100	350	stimuli\plant\flower\plant_flower09.jpg          	1	5	1	plant_flower09.jpg   	plant    	6	flower    	16	flower09    	168	alive    	1	still	0	natural 	1	n	0	0    	 	0.0	0	156.757783599896	156.857668800047	0.099885200150311
144191	100	351	stimuli\plant\cactus\plant_cactus06.jpg          	1	5	1	plant_cactus06.jpg   	plant    	6	cactus    	4	cactus06    	45	alive    	1	still	0	natural 	1	n	0	1    	f	0.300234599970281	1	156.90778229991002	157.007676600013	0.0998943001031875
144341	100	352	stimuli\plant\cactus\plant_cactus08.jpg          	1	5	1	plant_cactus08.jpg   	plant    	6	cactus    	4	cactus08    	47	alive    	1	still	0	natural 	1	n	0	0    	 	0.0	0	157.057769699953	157.157669800101	0.0999001001473516
144491	100	353	stimuli\movNat\fire\mn_fire06.jpg                	1	5	1	mn_fire06.jpg        	movNat   	3	fire      	15	fire06      	155	not_alive	0	moves	1	natural 	1	n	0	0    	 	0.0	0	157.207773000002	157.307673600037	0.0999006000347435
144641	100	354	stimuli\plant\flower\plant_flower09.jpg          	1	5	1	plant_flower09.jpg   	plant    	6	flower    	16	flower09    	168	alive    	1	still	0	natural 	1	n	0	0    	 	0.0	0	157.35778059996701	157.457676799968	0.0998962000012397
144791	100	355	stimuli\plant2\lemontree\plant_lemontree04.jpg   	1	5	1	plant_lemontree04.jpg	plant2   	7	lemontree 	22	lemontree04 	223	alive    	1	still	0	natural 	1	n	0	0    	 	0.0	0	157.50779559998801	157.607660100097	0.0998645001091063
144941	100	356	stimuli\nonmovArt\clothespeg\nma_clothespeg05.jpg	1	5	1	nma_clothespeg05.jpg 	nonmovArt	4	clothespeg	8	clothespeg05	84	not_alive	0	still	0	artefact	0	n	0	0    	 	0.0	0	157.657765599899	157.7576880001	0.0999224002007395
145091	100	357	stimuli\nonmovArt\bench\nma_bench02.jpg          	1	5	1	nma_bench02.jpg      	nonmovArt	4	bench     	1	bench02     	11	not_alive	0	still	0	artefact	0	n	0	0    	 	0.0	0	157.807762600016	157.907670299988	0.0999076999723911
145242	100	358	stimuli\animals2\whale\animal_whale01.jpg        	1	5	1	animal_whale01.jpg   	animals2 	1	whale     	39	whale01     	390	alive    	1	moves	1	natural 	1	n	0	0    	 	0.0	0	157.95786929992	158.057648600079	0.0997793001588434
145391	100	359	stimuli\plant2\clover\plant_clover06.jpg         	1	5	1	plant_clover06.jpg   	plant2   	7	clover    	9	clover06    	95	alive    	1	still	0	natural 	1	n	0	0    	 	0.0	0	158.107754199998	158.207657800056	0.09990360005758699
145541	100	360	stimuli\nonmovNat\sand\nmn_sand03.jpg            	1	5	1	nmn_sand03.jpg       	nonmovNat	5	sand      	31	sand03      	312	not_alive	0	still	0	natural 	1	n	0	0    	 	0.0	0	158.257753399899	158.35763440001801	0.0998810001183301
145691	100	361	stimuli\plant2\clover\plant_clover06.jpg         	1	5	1	plant_clover06.jpg   	plant2   	7	clover    	9	clover06    	95	alive    	1	still	0	natural 	1	n	0	0    	 	0.0	0	158.40775169991002	158.507648000028	0.0998963001184165
145841	100	362	stimuli\movArt\bus\ma_bus10.jpg                  	1	5	1	ma_bus10.jpg         	movArt   	2	bus       	3	bus10       	39	not_alive	0	moves	1	artefact	0	n	0	0    	 	0.0	0	158.55776309990299	158.657642500009	0.0998794001061469
145991	100	363	stimuli\animals\dolphin\animal_dolphin04.jpg     	1	5	1	animal_dolphin04.jpg 	animals  	0	dolphin   	12	dolphin04   	123	alive    	1	moves	1	natural 	1	n	0	0    	 	0.0	0	158.707758100005	158.807664199965	0.0999060999602079
146141	100	364	stimuli\movArt\helicopter\ma_helicopter05.jpg    	1	5	1	ma_helicopter05.jpg  	movArt   	2	helicopter	19	helicopter05	194	not_alive	0	moves	1	artefact	0	n	0	0    	 	0.0	0	158.857761600055	158.957668999908	0.0999073998536914
146291	100	365	stimuli\animals\dog\animal_dog03.jpg             	1	5	1	animal_dog03.jpg     	animals  	0	dog       	11	dog03       	112	alive    	1	moves	1	natural 	1	n	0	0    	 	0.0	0	159.007758900058	159.107649199897	0.0998902998398989
146442	100	366	stimuli\animals2\whale\animal_whale01.jpg        	1	5	1	animal_whale01.jpg   	animals2 	1	whale     	39	whale01     	390	alive    	1	moves	1	natural 	1	n	0	0    	 	0.0	0	159.157862199936	159.257642100099	0.0997799001634121
146591	100	367	stimuli\nonmovArt\clothespeg\nma_clothespeg06.jpg	1	5	1	nma_clothespeg06.jpg 	nonmovArt	4	clothespeg	8	clothespeg06	85	not_alive	0	still	0	artefact	0	n	0	0    	 	0.0	0	159.307766200043	159.407650300069	0.0998841000255197
146741	100	368	stimuli\plant2\palmtree\plant_palmtree02.jpg     	1	5	1	plant_palmtree02.jpg 	plant2   	7	palmtree  	27	palmtree02  	271	alive    	1	still	0	natural 	1	n	0	0    	 	0.0	0	159.457757600117	159.557665399974	0.0999077998567372
146891	100	369	stimuli\animals2\tiger\animal_tiger06.jpg        	1	5	1	animal_tiger06.jpg   	animals2 	1	tiger     	33	tiger06     	335	alive    	1	moves	1	natural 	1	n	0	0    	 	0.0	0	159.60777599993202	159.707761900034	0.0999859001021832
147041	100	370	stimuli\movNat\river\mn_river10.jpg              	1	5	1	mn_river10.jpg       	movNat   	3	river     	29	river10     	299	not_alive	0	moves	1	natural 	1	n	0	0    	 	0.0	0	159.757812099997	159.85780719993602	0.0999950999394059
147191	100	371	stimuli\nonmovNat\rock\nmn_rock08.jpg            	1	5	1	nmn_rock08.jpg       	nonmovNat	5	rock      	30	rock08      	307	not_alive	0	still	0	natural 	1	n	0	0    	 	0.0	0	159.90780199994302	160.00766230002	0.0998603000771254
147341	100	372	stimuli\movArt\bus\ma_bus03.jpg                  	1	5	1	ma_bus03.jpg         	movArt   	2	bus       	3	bus03       	32	not_alive	0	moves	1	artefact	0	n	0	0    	 	0.0	0	160.057767499937	160.157655799994	0.0998883000575006
147491	100	373	stimuli\nonmovNat\shell\nmn_shell08.jpg          	1	5	1	nmn_shell08.jpg      	nonmovNat	5	shell     	32	shell08     	327	not_alive	0	still	0	natural 	1	n	0	0    	 	0.0	0	160.20775660011	160.30764089990402	0.0998842997942119
147641	100	374	stimuli\nonmovArt\mug\nma_mug07.jpg              	1	5	1	nma_mug07.jpg        	nonmovArt	4	mug       	26	mug07       	266	not_alive	0	still	0	artefact	0	n	0	0    	 	0.0	0	160.357754600001	160.457654099911	0.0998994999099522
147791	100	375	stimuli\animals\dolphin\animal_dolphin02.jpg     	1	5	1	animal_dolphin02.jpg 	animals  	0	dolphin   	12	dolphin02   	121	alive    	1	moves	1	natural 	1	n	0	0    	 	0.0	0	160.5077513	160.607615600107	0.0998643001075834
147941	100	376	stimuli\movNat\waves\mn_waves08.jpg              	1	5	1	mn_waves08.jpg       	movNat   	3	waves     	38	waves08     	387	not_alive	0	moves	1	natural 	1	n	0	0    	 	0.0	0	160.657736700028	160.757647699909	0.0999109998811036
148091	100	377	stimuli\movArt\boat\ma_boat01.jpg                	1	5	1	ma_boat01.jpg        	movArt   	2	boat      	2	boat01      	20	not_alive	0	moves	1	artefact	0	n	0	0    	 	0.0	0	160.807746199891	160.907637899974	0.0998917000833898
148241	100	378	stimuli\movNat\fire\mn_fire04.jpg                	1	5	1	mn_fire04.jpg        	movNat   	3	fire      	15	fire04      	153	not_alive	0	moves	1	natural 	1	n	0	0    	 	0.0	0	160.957753099967	161.057644699933	0.0998915999662131
148391	100	379	stimuli\nonmovArt\clothespeg\nma_clothespeg08.jpg	1	5	1	nma_clothespeg08.jpg 	nonmovArt	4	clothespeg	8	clothespeg08	87	not_alive	0	still	0	artefact	0	n	1	0    	 	0.0	0	161.107740199892	161.207645300077	0.09990510018542402
148541	100	380	stimuli\movNat\fire\mn_fire09.jpg                	1	5	1	mn_fire09.jpg        	movNat   	3	fire      	15	fire09      	158	not_alive	0	moves	1	natural 	1	n	0	0    	 	0.0	0	161.257738499902	161.357630199986	0.0998917000833898
148691	100	381	stimuli\plant\flower\plant_flower05.jpg          	1	5	1	plant_flower05.jpg   	plant    	6	flower    	16	flower05    	164	alive    	1	still	0	natural 	1	n	0	1    	f	0.39199200016446395	1	161.407749699894	161.507735199993	0.0999855000991374
148841	100	382	stimuli\movArt\helicopter\ma_helicopter06.jpg    	1	5	1	ma_helicopter06.jpg  	movArt   	2	helicopter	19	helicopter06	195	not_alive	0	moves	1	artefact	0	n	0	0    	 	0.0	0	161.557773499982	161.657644100022	0.0998706000391394
148991	100	383	stimuli\plant\cactus\plant_cactus02.jpg          	1	5	1	plant_cactus02.jpg   	plant    	6	cactus    	4	cactus02    	41	alive    	1	still	0	natural 	1	n	0	0    	 	0.0	0	161.707734300056	161.807641899912	0.0999075998552143
149141	100	384	stimuli\plant\tree\plant_tree09.jpg              	1	5	1	plant_tree09.jpg     	plant    	6	tree      	35	tree09      	358	alive    	1	still	0	natural 	1	n	0	0    	 	0.0	0	161.85774470004299	161.957650100114	0.0999054000712931
149291	100	385	stimuli\movArt\car\ma_car08.jpg                  	1	5	1	ma_car08.jpg         	movArt   	2	car       	5	car08       	57	not_alive	0	moves	1	artefact	0	n	0	0    	 	0.0	0	162.007730900077	162.107631199993	0.0999002999160438
149441	100	386	stimuli\animals\cat\animal_cat03.jpg             	1	5	1	animal_cat03.jpg     	animals  	0	cat       	6	cat03       	62	alive    	1	moves	1	natural 	1	n	0	0    	 	0.0	0	162.157726200065	162.257633700035	0.0999074999708682
149591	100	387	stimuli\nonmovNat\cliff\nmn_cliff09.jpg          	1	5	1	nmn_cliff09.jpg      	nonmovNat	5	cliff     	7	cliff09     	78	not_alive	0	still	0	natural 	1	n	0	0    	 	0.0	0	162.307735000039	162.40761790005502	0.0998829000163823
149741	100	388	stimuli\animals\dolphin\animal_dolphin07.jpg     	1	5	1	animal_dolphin07.jpg 	animals  	0	dolphin   	12	dolphin07   	126	alive    	1	moves	1	natural 	1	n	0	0    	 	0.0	0	162.457730700029	162.55762559990401	0.0998948998749256
149891	100	389	stimuli\animals2\pigeon\animal_pigeon04.jpg      	1	5	1	animal_pigeon04.jpg  	animals2 	1	pigeon    	28	pigeon04    	283	alive    	1	moves	1	natural 	1	n	0	0    	 	0.0	0	162.607705499977	162.70762660005101	0.0999211000744253
150041	100	390	stimuli\nonmovArt\bench\nma_bench08.jpg          	1	5	1	nma_bench08.jpg      	nonmovArt	4	bench     	1	bench08     	17	not_alive	0	still	0	artefact	0	n	0	0    	 	0.0	0	162.75773079996	162.85763249988702	0.0999016999267041
150191	100	391	stimuli\nonmovNat\sand\nmn_sand07.jpg            	1	5	1	nmn_sand07.jpg       	nonmovNat	5	sand      	31	sand07      	316	not_alive	0	still	0	natural 	1	n	0	0    	 	0.0	0	162.907723200042	163.007621400058	0.0998982000164687
150341	100	392	stimuli\plant\tree\plant_tree10.jpg              	1	5	1	plant_tree10.jpg     	plant    	6	tree      	35	tree10      	359	alive    	1	still	0	natural 	1	n	0	0    	 	0.0	0	163.05771670001602	163.15759019996	0.0998734999448061
150491	100	393	stimuli\plant2\moss\plant_moss08.jpg             	1	5	1	plant_moss08.jpg     	plant2   	7	moss      	25	moss08      	257	alive    	1	still	0	natural 	1	n	0	0    	 	0.0	0	163.207731999923	163.307662999956	0.0999310000333935
150641	100	394	stimuli\animals2\lemur\animal_lemur06.jpg        	1	5	1	animal_lemur06.jpg   	animals2 	1	lemur     	23	lemur06     	235	alive    	1	moves	1	natural 	1	n	0	0    	 	0.0	0	163.357709999895	163.45761390007098	0.0999039001762867
150791	100	395	stimuli\plant\tree\plant_tree10.jpg              	1	5	1	plant_tree10.jpg     	plant    	6	tree      	35	tree10      	359	alive    	1	still	0	natural 	1	n	0	0    	 	0.0	0	163.507714000065	163.607599399984	0.0998853999190032
150941	100	396	stimuli\movNat\waterfall\mn_waterfall09.jpg      	1	5	1	mn_waterfall09.jpg   	movNat   	3	waterfall 	37	waterfall09 	378	not_alive	0	moves	1	natural 	1	n	0	0    	 	0.0	0	163.657701200107	163.757609900087	0.0999086999800056
151091	100	397	stimuli\plant\cactus\plant_cactus10.jpg          	1	5	1	plant_cactus10.jpg   	plant    	6	cactus    	4	cactus10    	49	alive    	1	still	0	natural 	1	n	0	0    	 	0.0	0	163.807698300108	163.907604499953	0.099906199844554
151241	100	398	stimuli\animals2\tiger\animal_tiger05.jpg        	1	5	1	animal_tiger05.jpg   	animals2 	1	tiger     	33	tiger05     	334	alive    	1	moves	1	natural 	1	n	0	0    	 	0.0	0	163.957706100075	164.05761449993602	0.0999083998613059
151391	100	399	stimuli\plant\cactus\plant_cactus04.jpg          	1	5	1	plant_cactus04.jpg   	plant    	6	cactus    	4	cactus04    	43	alive    	1	still	0	natural 	1	n	0	0    	 	0.0	0	164.107705099974	164.207608700031	0.09990360005758699
156375	100	400	stimuli\animals2\pigeon\animal_pigeon08.jpg      	1	6	1	animal_pigeon08.jpg  	animals2 	1	pigeon    	28	pigeon08    	287	alive    	1	moves	1	natural 	1	n	0	0    	 	0.0	0	169.091011800105	169.190895299893	0.0998834997881204
156525	100	401	stimuli\movNat\hotspring\mn_hotspring05.jpg      	1	6	1	mn_hotspring05.jpg   	movNat   	3	hotspring 	21	hotspring05 	214	not_alive	0	moves	1	natural 	1	n	0	0    	 	0.0	0	169.240973500069	169.340887000086	0.0999135000165552
156675	100	402	stimuli\movArt\train\ma_train07.jpg              	1	6	1	ma_train07.jpg       	movArt   	2	train     	34	train07     	346	not_alive	0	moves	1	artefact	0	n	0	0    	 	0.0	0	169.390972099965	169.490878599929	0.0999064999632537
156825	100	403	stimuli\plant2\palmtree\plant_palmtree06.jpg     	1	6	1	plant_palmtree06.jpg 	plant2   	7	palmtree  	27	palmtree06  	275	alive    	1	still	0	natural 	1	n	0	0    	 	0.0	0	169.540977800032	169.640884200111	0.0999064000789076
156975	100	404	stimuli\plant2\lemontree\plant_lemontree07.jpg   	1	6	1	plant_lemontree07.jpg	plant2   	7	lemontree 	22	lemontree07 	226	alive    	1	still	0	natural 	1	n	0	0    	 	0.0	0	169.691021200037	169.790870799916	0.09984959987923499
157125	100	405	stimuli\animals2\lemur\animal_lemur06.jpg        	1	6	1	animal_lemur06.jpg   	animals2 	1	lemur     	23	lemur06     	235	alive    	1	moves	1	natural 	1	n	0	0    	 	0.0	0	169.840972499922	169.940892199986	0.099919700063765
157275	100	406	stimuli\nonmovArt\mug\nma_mug07.jpg              	1	6	1	nma_mug07.jpg        	nonmovArt	4	mug       	26	mug07       	266	not_alive	0	still	0	artefact	0	n	0	0    	 	0.0	0	169.990976999979	170.091000899905	0.100023899925873
157425	100	407	stimuli\animals2\bee\animal_bee10.jpg            	1	6	1	animal_bee10.jpg     	animals2 	1	bee       	0	bee10       	9	alive    	1	moves	1	natural 	1	n	0	0    	 	0.0	0	170.14099580003	170.240876900032	0.0998811000026762
157575	100	408	stimuli\nonmovArt\mug\nma_mug02.jpg              	1	6	1	nma_mug02.jpg        	nonmovArt	4	mug       	26	mug02       	261	not_alive	0	still	0	artefact	0	n	0	0    	 	0.0	0	170.290972900111	170.390868700109	0.0998957999981939
157725	100	409	stimuli\movNat\river\mn_river09.jpg              	1	6	1	mn_river09.jpg       	movNat   	3	river     	29	river09     	298	not_alive	0	moves	1	natural 	1	n	0	0    	 	0.0	0	170.440980100073	170.540874300059	0.0998941999860108
157875	100	410	stimuli\animals2\lemur\animal_lemur03.jpg        	1	6	1	animal_lemur03.jpg   	animals2 	1	lemur     	23	lemur03     	232	alive    	1	moves	1	natural 	1	n	0	0    	 	0.0	0	170.590967800003	170.690860300092	0.0998925000894814
158025	100	411	stimuli\nonmovNat\rock\nmn_rock08.jpg            	1	6	1	nmn_rock08.jpg       	nonmovNat	5	rock      	30	rock08      	307	not_alive	0	still	0	natural 	1	n	0	0    	 	0.0	0	170.740977399982	170.84087230008998	0.0998949001077562
158175	100	412	stimuli\nonmovNat\cliff\nmn_cliff02.jpg          	1	6	1	nmn_cliff02.jpg      	nonmovNat	5	cliff     	7	cliff02     	71	not_alive	0	still	0	natural 	1	n	0	0    	 	0.0	0	170.89094759989501	170.990867000073	0.09991940017789601
158325	100	413	stimuli\nonmovArt\headphones\nma_headphones09.jpg	1	6	1	nma_headphones09.jpg 	nonmovArt	4	headphones	18	headphones09	188	not_alive	0	still	0	artefact	0	n	0	0    	 	0.0	0	171.040954600088	171.140874000033	0.0999193999450653
158475	100	414	stimuli\animals\horse\animal_horse09.jpg         	1	6	1	animal_horse09.jpg   	animals  	0	horse     	20	horse09     	208	alive    	1	moves	1	natural 	1	n	1	0    	 	0.0	0	171.190965699963	171.290861899965	0.0998962000012397
158625	100	415	stimuli\animals\dog\animal_dog03.jpg             	1	6	1	animal_dog03.jpg     	animals  	0	dog       	11	dog03       	112	alive    	1	moves	1	natural 	1	n	1	0    	 	0.0	0	171.34096279996402	171.4408613001	0.0998985001351684
158775	100	416	stimuli\nonmovArt\lock\nma_lock05.jpg            	1	6	1	nma_lock05.jpg       	nonmovArt	4	lock      	24	lock05      	244	not_alive	0	still	0	artefact	0	n	0	1    	f	0.156266600126401	1	171.490992400097	171.59086250001602	0.0998700999189168
158925	100	417	stimuli\plant\grass\plant_grass04.jpg            	1	6	1	plant_grass04.jpg    	plant    	6	grass     	17	grass04     	173	alive    	1	still	0	natural 	1	n	0	0    	 	0.0	0	171.64095970010402	171.740856199991	0.0998964998871088
