onset	duration	eventnumber	stimulus_file	blockno	trialno	is_faststream	stim	stim_category	category_number	exemplar	exemplar_number	image_name	image_number	aliveness	aliveness_bin	movement	movement_bin	naturalness	naturalness_bin	response_hand_moves	istarget	response	keypressed	rt	correct	time_stimon	time_stimoff	stimdur
81825	100	0	stimuli\animals\horse\animal_horse10.jpg         	1	1	1	animal_horse10.jpg   	animals  	0	horse     	20	horse10     	209	alive    	1	moves	1	natural 	1	n	0	0    	 	0.0	0	42.4145599000622	42.5144415000686	0.0998816000064835
81975	100	1	stimuli\plant\vine\plant_vine01.jpg              	1	1	1	plant_vine01.jpg     	plant    	6	vine      	36	vine01      	360	alive    	1	still	0	natural 	1	n	0	0    	 	0.0	0	42.564593099989	42.664436200051604	0.0998431000625714
82125	100	2	stimuli\animals\eagle\animal_eagle09.jpg         	1	1	1	animal_eagle09.jpg   	animals  	0	eagle     	13	eagle09     	138	alive    	1	moves	1	natural 	1	n	0	0    	 	0.0	0	42.7145192000316	42.81443830009079	0.0999191000591963
82275	100	3	stimuli\movArt\car\ma_car07.jpg                  	1	1	1	ma_car07.jpg         	movArt   	2	car       	5	car07       	56	not_alive	0	moves	1	artefact	0	n	0	0    	 	0.0	0	42.8645130000077	42.9644177000737	0.0999047000659629
82425	100	4	stimuli\movNat\waves\mn_waves01.jpg              	1	1	1	mn_waves01.jpg       	movNat   	3	waves     	38	waves01     	380	not_alive	0	moves	1	natural 	1	n	0	0    	 	0.0	0	43.014526700018905	43.114419199992	0.0998924999730661
82575	100	5	stimuli\nonmovNat\cliff\nmn_cliff09.jpg          	1	1	1	nmn_cliff09.jpg      	nonmovNat	5	cliff     	7	cliff09     	78	not_alive	0	still	0	natural 	1	n	0	0    	 	0.0	0	43.164518799982005	43.2644385000458	0.099919700063765
82725	100	6	stimuli\plant\vine\plant_vine02.jpg              	1	1	1	plant_vine02.jpg     	plant    	6	vine      	36	vine02      	361	alive    	1	still	0	natural 	1	n	0	0    	 	0.0	0	43.3145074000349	43.414415600011104	0.0999081999761983
82875	100	7	stimuli\animals\dog\animal_dog10.jpg             	1	1	1	animal_dog10.jpg     	animals  	0	dog       	11	dog10       	119	alive    	1	moves	1	natural 	1	n	0	0    	 	0.0	0	43.4645112000871	43.564436800079406	0.0999255999922752
83026	100	8	stimuli\movNat\fire\mn_fire03.jpg                	1	1	1	mn_fire03.jpg        	movNat   	3	fire      	15	fire03      	152	not_alive	0	moves	1	natural 	1	n	0	0    	 	0.0	0	43.614894400001496	43.7144302000525	0.09953580005094399
83175	100	9	stimuli\nonmovArt\clothespeg\nma_clothespeg05.jpg	1	1	1	nma_clothespeg05.jpg 	nonmovArt	4	clothespeg	8	clothespeg05	84	not_alive	0	still	0	artefact	0	n	0	0    	 	0.0	0	43.7645204000873	43.8644265000476	0.0999060999602079
83325	100	10	stimuli\animals2\lemur\animal_lemur07.jpg        	1	1	1	animal_lemur07.jpg   	animals2 	1	lemur     	23	lemur07     	236	alive    	1	moves	1	natural 	1	n	0	0    	 	0.0	0	43.914522200007895	44.014423000044204	0.0999008000362664
83475	100	11	stimuli\plant\vine\plant_vine10.jpg              	1	1	1	plant_vine10.jpg     	plant    	6	vine      	36	vine10      	369	alive    	1	still	0	natural 	1	n	0	0    	 	0.0	0	44.064517199993105	44.1644194000401	0.0999022000469267
83625	100	12	stimuli\nonmovArt\clothespeg\nma_clothespeg05.jpg	1	1	1	nma_clothespeg05.jpg 	nonmovArt	4	clothespeg	8	clothespeg05	84	not_alive	0	still	0	artefact	0	n	0	0    	 	0.0	0	44.214505400043	44.3144151000306	0.0999096999876201
83775	100	13	stimuli\animals2\bee\animal_bee09.jpg            	1	1	1	animal_bee09.jpg     	animals2 	1	bee       	0	bee09       	8	alive    	1	moves	1	natural 	1	n	0	0    	 	0.0	0	44.364496399997705	44.4644175000722	0.0999211000744253
83925	100	14	stimuli\nonmovArt\mug\nma_mug04.jpg              	1	1	1	nma_mug04.jpg        	nonmovArt	4	mug       	26	mug04       	263	not_alive	0	still	0	artefact	0	n	0	0    	 	0.0	0	44.5145057000918	44.614415500080206	0.0999097999883815
84075	100	15	stimuli\nonmovNat\rock\nmn_rock02.jpg            	1	1	1	nmn_rock02.jpg       	nonmovNat	5	rock      	30	rock02      	301	not_alive	0	still	0	natural 	1	n	0	0    	 	0.0	0	44.66450240009	44.7644227000419	0.0999202999519184
84225	100	16	stimuli\movArt\boat\ma_boat07.jpg                	1	1	1	ma_boat07.jpg        	movArt   	2	boat      	2	boat07      	26	not_alive	0	moves	1	artefact	0	n	0	0    	 	0.0	0	44.814478500047706	44.91441680002029	0.0999382999725639
84375	100	17	stimuli\animals\horse\animal_horse04.jpg         	1	1	1	animal_horse04.jpg   	animals  	0	horse     	20	horse04     	203	alive    	1	moves	1	natural 	1	n	0	0    	 	0.0	0	44.9644965000916	45.06441059999639	0.0999140999047085
84525	100	18	stimuli\plant2\moss\plant_moss05.jpg             	1	1	1	plant_moss05.jpg     	plant2   	7	moss      	25	moss05      	254	alive    	1	still	0	natural 	1	n	0	0    	 	0.0	0	45.114490100066206	45.214405100094204	0.0999150000279769
84675	100	19	stimuli\nonmovArt\bench\nma_bench09.jpg          	1	1	1	nma_bench09.jpg      	nonmovArt	4	bench     	1	bench09     	18	not_alive	0	still	0	artefact	0	n	0	0    	 	0.0	0	45.264481200021706	45.36439840006639	0.0999172000447288
84825	100	20	stimuli\animals\horse\animal_horse08.jpg         	1	1	1	animal_horse08.jpg   	animals  	0	horse     	20	horse08     	207	alive    	1	moves	1	natural 	1	n	0	0    	 	0.0	0	45.4144848000724	45.5144058000296	0.0999209999572485
84975	100	21	stimuli\plant\tree\plant_tree05.jpg              	1	1	1	plant_tree05.jpg     	plant    	6	tree      	35	tree05      	354	alive    	1	still	0	natural 	1	n	0	0    	 	0.0	0	45.5645152000943	45.66441850003321	0.0999032999388873
85125	100	22	stimuli\movNat\waves\mn_waves06.jpg              	1	1	1	mn_waves06.jpg       	movNat   	3	waves     	38	waves06     	385	not_alive	0	moves	1	natural 	1	n	0	0    	 	0.0	0	45.71448470000179	45.8144107999979	0.0999260999960824
85275	100	23	stimuli\movNat\river\mn_river02.jpg              	1	1	1	mn_river02.jpg       	movNat   	3	river     	29	river02     	291	not_alive	0	moves	1	natural 	1	n	0	0    	 	0.0	0	45.8644856000319	45.9643939000089	0.0999082999769598
85425	100	24	stimuli\nonmovNat\shell\nmn_shell06.jpg          	1	1	1	nmn_shell06.jpg      	nonmovNat	5	shell     	32	shell06     	325	not_alive	0	still	0	natural 	1	n	0	0    	 	0.0	0	46.014484100043795	46.114410600042895	0.0999264999991282
85575	100	25	stimuli\animals2\tiger\animal_tiger09.jpg        	1	1	1	animal_tiger09.jpg   	animals2 	1	tiger     	33	tiger09     	338	alive    	1	moves	1	natural 	1	n	0	0    	 	0.0	0	46.1644914000062	46.2644028000068	0.0999114000005647
85725	100	26	stimuli\nonmovNat\cliff\nmn_cliff04.jpg          	1	1	1	nmn_cliff04.jpg      	nonmovNat	5	cliff     	7	cliff04     	73	not_alive	0	still	0	natural 	1	n	0	0    	 	0.0	0	46.3144778000424	46.4143987999996	0.0999209999572485
85875	100	27	stimuli\movNat\waves\mn_waves10.jpg              	1	1	1	mn_waves10.jpg       	movNat   	3	waves     	38	waves10     	389	not_alive	0	moves	1	natural 	1	n	0	0    	 	0.0	0	46.4644758000504	46.5644082000945	0.0999324000440538
86025	100	28	stimuli\nonmovNat\shell\nmn_shell01.jpg          	1	1	1	nmn_shell01.jpg      	nonmovNat	5	shell     	32	shell01     	320	not_alive	0	still	0	natural 	1	n	0	0    	 	0.0	0	46.614490700070704	46.7144038000843	0.0999131000135094
86175	100	29	stimuli\nonmovArt\headphones\nma_headphones03.jpg	1	1	1	nma_headphones03.jpg 	nonmovArt	4	headphones	18	headphones03	182	not_alive	0	still	0	artefact	0	n	0	0    	 	0.0	0	46.7644743000856	46.8644459000789	0.0999715999932959
86325	100	30	stimuli\nonmovArt\lock\nma_lock01.jpg            	1	1	1	nma_lock01.jpg       	nonmovArt	4	lock      	24	lock01      	240	not_alive	0	still	0	artefact	0	n	0	0    	 	0.0	0	46.914488899987205	47.0144007999916	0.099911900004372
86475	100	31	stimuli\plant2\clover\plant_clover06.jpg         	1	1	1	plant_clover06.jpg   	plant2   	7	clover    	9	clover06    	95	alive    	1	still	0	natural 	1	n	0	0    	 	0.0	0	47.0644465000369	47.1644084000727	0.0999619000358507
86625	100	32	stimuli\animals\cat\animal_cat09.jpg             	1	1	1	animal_cat09.jpg     	animals  	0	cat       	6	cat09       	68	alive    	1	moves	1	natural 	1	n	0	0    	 	0.0	0	47.2144906000467	47.314381300006104	0.09989069995936001
86775	100	33	stimuli\animals2\lemur\animal_lemur08.jpg        	1	1	1	animal_lemur08.jpg   	animals2 	1	lemur     	23	lemur08     	237	alive    	1	moves	1	natural 	1	n	0	0    	 	0.0	0	47.3644687000196	47.4643814000301	0.0999127000104636
86925	100	34	stimuli\nonmovNat\cliff\nmn_cliff03.jpg          	1	1	1	nmn_cliff03.jpg      	nonmovNat	5	cliff     	7	cliff03     	72	not_alive	0	still	0	natural 	1	n	0	0    	 	0.0	0	47.51446790003679	47.6143748000031	0.0999068999662995
87075	100	35	stimuli\movArt\bus\ma_bus08.jpg                  	1	1	1	ma_bus08.jpg         	movArt   	2	bus       	3	bus08       	37	not_alive	0	moves	1	artefact	0	n	0	0    	 	0.0	0	47.6644728000974	47.76439120003489	0.0999183999374508
87225	100	36	stimuli\plant\cactus\plant_cactus04.jpg          	1	1	1	plant_cactus04.jpg   	plant    	6	cactus    	4	cactus04    	43	alive    	1	still	0	natural 	1	n	1	0    	 	0.0	0	47.814459700021	47.9143821999896	0.0999224999686703
87375	100	37	stimuli\movNat\waterfall\mn_waterfall07.jpg      	1	1	1	mn_waterfall07.jpg   	movNat   	3	waterfall 	37	waterfall07 	376	not_alive	0	moves	1	natural 	1	n	0	0    	 	0.0	0	47.964464600081605	48.0643789999885	0.0999143999069929
87525	100	38	stimuli\movArt\train\ma_train03.jpg              	1	1	1	ma_train03.jpg       	movArt   	2	train     	34	train03     	342	not_alive	0	moves	1	artefact	0	n	0	1    	f	0.39200500003062205	1	48.114486200036495	48.2143902000971	0.0999040000606328
87675	100	39	stimuli\nonmovNat\crystal\nmn_crystal06.jpg      	1	1	1	nmn_crystal06.jpg    	nonmovNat	5	crystal   	10	crystal06   	105	not_alive	0	still	0	natural 	1	n	0	0    	 	0.0	0	48.264454200048895	48.36438290006479	0.0999287000158801
87825	100	40	stimuli\animals2\whale\animal_whale08.jpg        	1	1	1	animal_whale08.jpg   	animals2 	1	whale     	39	whale08     	397	alive    	1	moves	1	natural 	1	n	0	0    	 	0.0	0	48.4144532000646	48.514386800001404	0.0999335999367758
87975	100	41	stimuli\plant\flower\plant_flower02.jpg          	1	1	1	plant_flower02.jpg   	plant    	6	flower    	16	flower02    	161	alive    	1	still	0	natural 	1	n	0	0    	 	0.0	0	48.56446340004911	48.6643729000352	0.0999094999860972
88125	100	42	stimuli\animals\dolphin\animal_dolphin05.jpg     	1	1	1	animal_dolphin05.jpg 	animals  	0	dolphin   	12	dolphin05   	124	alive    	1	moves	1	natural 	1	n	0	0    	 	0.0	0	48.7144639000762	48.8143729000585	0.0999089999822899
88275	100	43	stimuli\nonmovNat\rock\nmn_rock01.jpg            	1	1	1	nmn_rock01.jpg       	nonmovNat	5	rock      	30	rock01      	300	not_alive	0	still	0	natural 	1	n	1	0    	 	0.0	0	48.8645598000148	48.9643631000072	0.0998032999923452
88425	100	44	stimuli\nonmovArt\bench\nma_bench10.jpg          	1	1	1	nma_bench10.jpg      	nonmovArt	4	bench     	1	bench10     	19	not_alive	0	still	0	artefact	0	n	0	0    	 	0.0	0	49.014472000068	49.1143748000031	0.0999027999350801
88575	100	45	stimuli\animals\dolphin\animal_dolphin07.jpg     	1	1	1	animal_dolphin07.jpg 	animals  	0	dolphin   	12	dolphin07   	126	alive    	1	moves	1	natural 	1	n	0	0    	 	0.0	0	49.16446520003961	49.26454190001821	0.10007669997867201
88725	100	46	stimuli\animals\cat\animal_cat08.jpg             	1	1	1	animal_cat08.jpg     	animals  	0	cat       	6	cat08       	67	alive    	1	moves	1	natural 	1	n	0	1    	f	0.541868100059219	1	49.3144506000681	49.4143609000603	0.0999102999921888
88875	100	47	stimuli\animals2\bee\animal_bee08.jpg            	1	1	1	animal_bee08.jpg     	animals2 	1	bee       	0	bee08       	7	alive    	1	moves	1	natural 	1	n	0	0    	 	0.0	0	49.464470100007	49.5643694000319	0.0998993000248447
89025	100	48	stimuli\plant\cactus\plant_cactus02.jpg          	1	1	1	plant_cactus02.jpg   	plant    	6	cactus    	4	cactus02    	41	alive    	1	still	0	natural 	1	n	0	0    	 	0.0	0	49.614450299996	49.714366100030006	0.0999158000340685
89175	100	49	stimuli\animals\cat\animal_cat08.jpg             	1	1	1	animal_cat08.jpg     	animals  	0	cat       	6	cat08       	67	alive    	1	moves	1	natural 	1	n	0	0    	 	0.0	0	49.7644462999888	49.864354300079896	0.0999080000910908
89325	100	50	stimuli\nonmovArt\lock\nma_lock08.jpg            	1	1	1	nma_lock08.jpg       	nonmovArt	4	lock      	24	lock08      	247	not_alive	0	still	0	artefact	0	n	0	0    	 	0.0	0	49.9144605000038	50.014358400018	0.0998979000141844
89475	100	51	stimuli\movArt\bus\ma_bus09.jpg                  	1	1	1	ma_bus09.jpg         	movArt   	2	bus       	3	bus09       	38	not_alive	0	moves	1	artefact	0	n	0	0    	 	0.0	0	50.064443100011	50.164365799981205	0.0999226999701932
89625	100	52	stimuli\animals2\pigeon\animal_pigeon03.jpg      	1	1	1	animal_pigeon03.jpg  	animals2 	1	pigeon    	28	pigeon03    	282	alive    	1	moves	1	natural 	1	n	0	0    	 	0.0	0	50.214433500077604	50.31434530008121	0.0999118000036105
89775	100	53	stimuli\animals2\tiger\animal_tiger07.jpg        	1	1	1	animal_tiger07.jpg   	animals2 	1	tiger     	33	tiger07     	336	alive    	1	moves	1	natural 	1	n	0	0    	 	0.0	0	50.364443800062894	50.4643524000421	0.0999085999792441
89925	100	54	stimuli\plant\grass\plant_grass08.jpg            	1	1	1	plant_grass08.jpg    	plant    	6	grass     	17	grass08     	177	alive    	1	still	0	natural 	1	n	1	0    	 	0.0	0	50.5144393000519	50.6142959999852	0.0998566999332979
90075	100	55	stimuli\movNat\fire\mn_fire06.jpg                	1	1	1	mn_fire06.jpg        	movNat   	3	fire      	15	fire06      	155	not_alive	0	moves	1	natural 	1	n	0	0    	 	0.0	0	50.664437200059204	50.764361000037795	0.0999237999785691
90225	100	56	stimuli\plant2\palmtree\plant_palmtree07.jpg     	1	1	1	plant_palmtree07.jpg 	plant2   	7	palmtree  	27	palmtree07  	276	alive    	1	still	0	natural 	1	n	0	1    	f	0.391963699948974	1	50.8144279000117	50.9143619000679	0.0999340000562369
90375	100	57	stimuli\plant2\lemontree\plant_lemontree04.jpg   	1	1	1	plant_lemontree04.jpg	plant2   	7	lemontree 	22	lemontree04 	223	alive    	1	still	0	natural 	1	n	0	0    	 	0.0	0	50.9644359000959	51.0643405000446	0.0999045999487862
90525	100	58	stimuli\movNat\river\mn_river10.jpg              	1	1	1	mn_river10.jpg       	movNat   	3	river     	29	river10     	299	not_alive	0	moves	1	natural 	1	n	0	0    	 	0.0	0	51.1144665000029	51.21434170007711	0.099875200074166
90675	100	59	stimuli\animals2\pigeon\animal_pigeon08.jpg      	1	1	1	animal_pigeon08.jpg  	animals2 	1	pigeon    	28	pigeon08    	287	alive    	1	moves	1	natural 	1	n	0	0    	 	0.0	0	51.2644351000199	51.364345000009095	0.09990989998914301
90825	100	60	stimuli\nonmovNat\sand\nmn_sand07.jpg            	1	1	1	nmn_sand07.jpg       	nonmovNat	5	sand      	31	sand07      	316	not_alive	0	still	0	natural 	1	n	0	0    	 	0.0	0	51.41443930007521	51.5143414000049	0.0999020999297499
90975	100	61	stimuli\animals2\tiger\animal_tiger03.jpg        	1	1	1	animal_tiger03.jpg   	animals2 	1	tiger     	33	tiger03     	332	alive    	1	moves	1	natural 	1	n	0	0    	 	0.0	0	51.56442970002539	51.664353000000105	0.0999232999747619
91125	100	62	stimuli\plant2\clover\plant_clover02.jpg         	1	1	1	plant_clover02.jpg   	plant2   	7	clover    	9	clover02    	91	alive    	1	still	0	natural 	1	n	0	0    	 	0.0	0	51.7144281000365	51.81434530008121	0.0999172000447288
91275	100	63	stimuli\plant2\fern\plant_fern05.jpg             	1	1	1	plant_fern05.jpg     	plant2   	7	fern      	14	fern05      	144	alive    	1	still	0	natural 	1	n	0	0    	 	0.0	0	51.86442370002621	51.964343600091496	0.0999199000652879
91425	100	64	stimuli\animals2\bee\animal_bee08.jpg            	1	1	1	animal_bee08.jpg     	animals2 	1	bee       	0	bee08       	7	alive    	1	moves	1	natural 	1	n	0	0    	 	0.0	0	52.0144327000016	52.11432689998771	0.0998941999860108
91575	100	65	stimuli\plant2\lemontree\plant_lemontree09.jpg   	1	1	1	plant_lemontree09.jpg	plant2   	7	lemontree 	22	lemontree09 	228	alive    	1	still	0	natural 	1	n	0	0    	 	0.0	0	52.16444040008351	52.264340099995	0.0998996999114751
91725	100	66	stimuli\plant\flower\plant_flower01.jpg          	1	1	1	plant_flower01.jpg   	plant    	6	flower    	16	flower01    	160	alive    	1	still	0	natural 	1	n	0	0    	 	0.0	0	52.3144545999821	52.414329900057105	0.0998753000749275
91875	100	67	stimuli\animals\dolphin\animal_dolphin05.jpg     	1	1	1	animal_dolphin05.jpg 	animals  	0	dolphin   	12	dolphin05   	124	alive    	1	moves	1	natural 	1	n	0	0    	 	0.0	0	52.4644106000196	52.5643299000803	0.0999193000607192
92025	100	68	stimuli\animals\dog\animal_dog04.jpg             	1	1	1	animal_dog04.jpg     	animals  	0	dog       	11	dog04       	113	alive    	1	moves	1	natural 	1	n	0	0    	 	0.0	0	52.61442430003079	52.71433190000239	0.0999075999716296
92175	100	69	stimuli\movNat\waterfall\mn_waterfall03.jpg      	1	1	1	mn_waterfall03.jpg   	movNat   	3	waterfall 	37	waterfall03 	372	not_alive	0	moves	1	natural 	1	n	0	0    	 	0.0	0	52.7644357000245	52.8643299000105	0.0998941999860108
92325	100	70	stimuli\animals2\pigeon\animal_pigeon10.jpg      	1	1	1	animal_pigeon10.jpg  	animals2 	1	pigeon    	28	pigeon10    	289	alive    	1	moves	1	natural 	1	n	0	0    	 	0.0	0	52.914413599995896	53.0143244999927	0.0999108999967575
92475	100	71	stimuli\plant2\fern\plant_fern08.jpg             	1	1	1	plant_fern08.jpg     	plant2   	7	fern      	14	fern08      	147	alive    	1	still	0	natural 	1	n	0	0    	 	0.0	0	53.06440510007089	53.1643267000327	0.0999215999618172
92625	100	72	stimuli\nonmovArt\headphones\nma_headphones10.jpg	1	1	1	nma_headphones10.jpg 	nonmovArt	4	headphones	18	headphones10	189	not_alive	0	still	0	artefact	0	n	0	0    	 	0.0	0	53.21443250007	53.314341700053795	0.0999091999838128
92775	100	73	stimuli\movArt\car\ma_car07.jpg                  	1	1	1	ma_car07.jpg         	movArt   	2	car       	5	car07       	56	not_alive	0	moves	1	artefact	0	n	0	0    	 	0.0	0	53.3644241000293	53.4643260000739	0.0999019000446424
92925	100	74	stimuli\animals\eagle\animal_eagle02.jpg         	1	1	1	animal_eagle02.jpg   	animals  	0	eagle     	13	eagle02     	131	alive    	1	moves	1	natural 	1	n	0	0    	 	0.0	0	53.5143950000638	53.614311799989096	0.0999167999252677
93075	100	75	stimuli\movArt\car\ma_car09.jpg                  	1	1	1	ma_car09.jpg         	movArt   	2	car       	5	car09       	58	not_alive	0	moves	1	artefact	0	n	0	0    	 	0.0	0	53.6644001000095	53.76431790005879	0.0999178000492975
93225	100	76	stimuli\movArt\bus\ma_bus04.jpg                  	1	1	1	ma_bus04.jpg         	movArt   	2	bus       	3	bus04       	33	not_alive	0	moves	1	artefact	0	n	0	0    	 	0.0	0	53.8144320000429	53.914324400015204	0.0998923999723047
93375	100	77	stimuli\nonmovNat\shell\nmn_shell05.jpg          	1	1	1	nmn_shell05.jpg      	nonmovNat	5	shell     	32	shell05     	324	not_alive	0	still	0	natural 	1	n	0	0    	 	0.0	0	53.9643958000233	54.064306800020894	0.0999109999975189
93525	100	78	stimuli\plant\cactus\plant_cactus03.jpg          	1	1	1	plant_cactus03.jpg   	plant    	6	cactus    	4	cactus03    	42	alive    	1	still	0	natural 	1	n	0	0    	 	0.0	0	54.114412600058095	54.2143175000092	0.0999048999510705
93675	100	79	stimuli\nonmovArt\mug\nma_mug02.jpg              	1	1	1	nma_mug02.jpg        	nonmovArt	4	mug       	26	mug02       	261	not_alive	0	still	0	artefact	0	n	0	0    	 	0.0	0	54.264392900047795	54.3643180000363	0.099925099988468
105658	100	80	stimuli\plant2\fern\plant_fern08.jpg             	1	2	1	plant_fern08.jpg     	plant2   	7	fern      	14	fern08      	147	alive    	1	still	0	natural 	1	n	0	0    	 	0.0	0	66.2467542000814	66.346738900058	0.0999846999766305
105808	100	81	stimuli\movArt\boat\ma_boat08.jpg                	1	2	1	ma_boat08.jpg        	movArt   	2	boat      	2	boat08      	27	not_alive	0	moves	1	artefact	0	n	0	0    	 	0.0	0	66.3967474000529	66.4967357000569	0.0999883000040426
105958	100	82	stimuli\movNat\waterfall\mn_waterfall08.jpg      	1	2	1	mn_waterfall08.jpg   	movNat   	3	waterfall 	37	waterfall08 	377	not_alive	0	moves	1	natural 	1	n	0	0    	 	0.0	0	66.54674220003649	66.6467385999859	0.0999963999493047
106108	100	83	stimuli\plant\grass\plant_grass07.jpg            	1	2	1	plant_grass07.jpg    	plant    	6	grass     	17	grass07     	176	alive    	1	still	0	natural 	1	n	0	0    	 	0.0	0	66.6967458000872	66.7967363999924	0.0999905999051407
106258	100	84	stimuli\movArt\helicopter\ma_helicopter09.jpg    	1	2	1	ma_helicopter09.jpg  	movArt   	2	helicopter	19	helicopter09	198	not_alive	0	moves	1	artefact	0	n	0	0    	 	0.0	0	66.84674360009379	66.9467335999943	0.0999899999005719
106408	100	85	stimuli\plant2\palmtree\plant_palmtree10.jpg     	1	2	1	plant_palmtree10.jpg 	plant2   	7	palmtree  	27	palmtree10  	279	alive    	1	still	0	natural 	1	n	0	0    	 	0.0	0	66.9967424999923	67.0967315000016	0.0999890000093728
106558	100	86	stimuli\animals2\whale\animal_whale08.jpg        	1	2	1	animal_whale08.jpg   	animals2 	1	whale     	39	whale08     	397	alive    	1	moves	1	natural 	1	n	0	0    	 	0.0	0	67.1467412000056	67.2467339000432	0.0999927000375464
106708	100	87	stimuli\movArt\train\ma_train05.jpg              	1	2	1	ma_train05.jpg       	movArt   	2	train     	34	train05     	344	not_alive	0	moves	1	artefact	0	n	0	0    	 	0.0	0	67.2967375000008	67.39672630000861	0.0999888000078499
106858	100	88	stimuli\nonmovNat\crystal\nmn_crystal05.jpg      	1	2	1	nmn_crystal05.jpg    	nonmovNat	5	crystal   	10	crystal05   	104	not_alive	0	still	0	natural 	1	n	0	0    	 	0.0	0	67.44673860003239	67.5467277000425	0.0999891000101342
107008	100	89	stimuli\movNat\hotspring\mn_hotspring04.jpg      	1	2	1	mn_hotspring04.jpg   	movNat   	3	hotspring 	21	hotspring04 	213	not_alive	0	moves	1	natural 	1	n	0	0    	 	0.0	0	67.5967332000146	67.6967379000271	0.100004700012505
107158	100	90	stimuli\animals\eagle\animal_eagle01.jpg         	1	2	1	animal_eagle01.jpg   	animals  	0	eagle     	13	eagle01     	130	alive    	1	moves	1	natural 	1	n	0	0    	 	0.0	0	67.7467415999854	67.846724800067	0.09998320008162402
107308	100	91	stimuli\nonmovNat\sand\nmn_sand01.jpg            	1	2	1	nmn_sand01.jpg       	nonmovNat	5	sand      	31	sand01      	310	not_alive	0	still	0	natural 	1	n	0	0    	 	0.0	0	67.8967317000497	67.99672250007279	0.0999908000230789
107458	100	92	stimuli\animals\dog\animal_dog01.jpg             	1	2	1	animal_dog01.jpg     	animals  	0	dog       	11	dog01       	110	alive    	1	moves	1	natural 	1	n	0	0    	 	0.0	0	68.04673040006311	68.14672160008921	0.0999912000261247
107608	100	93	stimuli\plant\tree\plant_tree05.jpg              	1	2	1	plant_tree05.jpg     	plant    	6	tree      	35	tree05      	354	alive    	1	still	0	natural 	1	n	0	0    	 	0.0	0	68.1967308000894	68.2967165000737	0.099985699984245
107758	100	94	stimuli\nonmovNat\crystal\nmn_crystal01.jpg      	1	2	1	nmn_crystal01.jpg    	nonmovNat	5	crystal   	10	crystal01   	100	not_alive	0	still	0	natural 	1	n	0	0    	 	0.0	0	68.3467283000937	68.4467161000939	0.0999878000002354
107908	100	95	stimuli\plant2\palmtree\plant_palmtree07.jpg     	1	2	1	plant_palmtree07.jpg 	plant2   	7	palmtree  	27	palmtree07  	276	alive    	1	still	0	natural 	1	n	0	0    	 	0.0	0	68.4967274999944	68.5967151999939	0.099987699999474
108058	100	96	stimuli\animals2\lemur\animal_lemur06.jpg        	1	2	1	animal_lemur06.jpg   	animals2 	1	lemur     	23	lemur06     	235	alive    	1	moves	1	natural 	1	n	0	0    	 	0.0	0	68.6467252000002	68.74671820004001	0.0999930000398308
108208	100	97	stimuli\nonmovNat\sand\nmn_sand09.jpg            	1	2	1	nmn_sand09.jpg       	nonmovNat	5	sand      	31	sand09      	318	not_alive	0	still	0	natural 	1	n	0	0    	 	0.0	0	68.7967249000212	68.89672820002309	0.100003300001845
108358	100	98	stimuli\nonmovNat\rock\nmn_rock01.jpg            	1	2	1	nmn_rock01.jpg       	nonmovNat	5	rock      	30	rock01      	300	not_alive	0	still	0	natural 	1	n	0	0    	 	0.0	0	68.9467197000049	69.0467127000448	0.0999930000398308
108508	100	99	stimuli\movNat\river\mn_river07.jpg              	1	2	1	mn_river07.jpg       	movNat   	3	river     	29	river07     	296	not_alive	0	moves	1	natural 	1	n	0	0    	 	0.0	0	69.0967210000381	69.1967082000338	0.0999871999956667
108658	100	100	stimuli\nonmovArt\mug\nma_mug02.jpg              	1	2	1	nma_mug02.jpg        	nonmovArt	4	mug       	26	mug02       	261	not_alive	0	still	0	artefact	0	n	0	0    	 	0.0	0	69.2467184000416	69.34670780005399	0.0999894000124186
108808	100	101	stimuli\plant\flower\plant_flower09.jpg          	1	2	1	plant_flower09.jpg   	plant    	6	flower    	16	flower09    	168	alive    	1	still	0	natural 	1	n	0	0    	 	0.0	0	69.396713300026	69.4967266999884	0.10001339996233599
108958	100	102	stimuli\movNat\hotspring\mn_hotspring01.jpg      	1	2	1	mn_hotspring01.jpg   	movNat   	3	hotspring 	21	hotspring01 	210	not_alive	0	moves	1	natural 	1	n	0	0    	 	0.0	0	69.5467146000592	69.6467033000663	0.0999887000070884
109108	100	103	stimuli\nonmovArt\lock\nma_lock07.jpg            	1	2	1	nma_lock07.jpg       	nonmovArt	4	lock      	24	lock07      	246	not_alive	0	still	0	artefact	0	n	0	0    	 	0.0	0	69.69677720009349	69.7967025000835	0.0999252999899908
109258	100	104	stimuli\plant2\moss\plant_moss01.jpg             	1	2	1	plant_moss01.jpg     	plant2   	7	moss      	25	moss01      	250	alive    	1	still	0	natural 	1	n	1	0    	 	0.0	0	69.8467119000852	69.9467043000041	0.0999923999188468
109408	100	105	stimuli\animals2\whale\animal_whale09.jpg        	1	2	1	animal_whale09.jpg   	animals2 	1	whale     	39	whale09     	398	alive    	1	moves	1	natural 	1	n	0	1    	f	0.241974500007927	1	69.996711499989	70.09670220001139	0.0999907000223174
109558	100	106	stimuli\movArt\helicopter\ma_helicopter07.jpg    	1	2	1	ma_helicopter07.jpg  	movArt   	2	helicopter	19	helicopter07	196	not_alive	0	moves	1	artefact	0	n	0	0    	 	0.0	0	70.14670919999479	70.246674300055	0.09996510006021699
109708	100	107	stimuli\movNat\hotspring\mn_hotspring08.jpg      	1	2	1	mn_hotspring08.jpg   	movNat   	3	hotspring 	21	hotspring08 	217	not_alive	0	moves	1	natural 	1	n	0	0    	 	0.0	0	70.296676900005	70.3967040000716	0.10002710006665401
109858	100	108	stimuli\movArt\helicopter\ma_helicopter05.jpg    	1	2	1	ma_helicopter05.jpg  	movArt   	2	helicopter	19	helicopter05	194	not_alive	0	moves	1	artefact	0	n	0	0    	 	0.0	0	70.4467054000124	70.5467026000842	0.0999972000718116
110008	100	109	stimuli\movArt\train\ma_train05.jpg              	1	2	1	ma_train05.jpg       	movArt   	2	train     	34	train05     	344	not_alive	0	moves	1	artefact	0	n	0	0    	 	0.0	0	70.5967045000289	70.6967008000938	0.0999963000649586
110158	100	110	stimuli\plant2\lemontree\plant_lemontree05.jpg   	1	2	1	plant_lemontree05.jpg	plant2   	7	lemontree 	22	lemontree05 	224	alive    	1	still	0	natural 	1	n	0	0    	 	0.0	0	70.746711099986	70.84669720008971	0.0999861001037061
110308	100	111	stimuli\nonmovArt\bench\nma_bench10.jpg          	1	2	1	nma_bench10.jpg      	nonmovArt	4	bench     	1	bench10     	19	not_alive	0	still	0	artefact	0	n	0	0    	 	0.0	0	70.8967071000952	70.9966962999897	0.0999891998944804
110458	100	112	stimuli\plant2\clover\plant_clover04.jpg         	1	2	1	plant_clover04.jpg   	plant2   	7	clover    	9	clover04    	93	alive    	1	still	0	natural 	1	n	1	0    	 	0.0	0	71.0467056999914	71.14669429999779	0.09998860000632699
110608	100	113	stimuli\plant\tree\plant_tree08.jpg              	1	2	1	plant_tree08.jpg     	plant    	6	tree      	35	tree08      	357	alive    	1	still	0	natural 	1	n	0	0    	 	0.0	0	71.1967079000315	71.2967060999945	0.0999981999630108
110758	100	114	stimuli\plant\grass\plant_grass09.jpg            	1	2	1	plant_grass09.jpg    	plant    	6	grass     	17	grass09     	178	alive    	1	still	0	natural 	1	n	0	1    	f	0.300218300078996	1	71.3467220000457	71.44669350003821	0.0999714999925345
110908	100	115	stimuli\nonmovArt\clothespeg\nma_clothespeg08.jpg	1	2	1	nma_clothespeg08.jpg 	nonmovArt	4	clothespeg	8	clothespeg08	87	not_alive	0	still	0	artefact	0	n	0	0    	 	0.0	0	71.4967001000186	71.59669040003791	0.0999903000192716
111058	100	116	stimuli\plant2\moss\plant_moss10.jpg             	1	2	1	plant_moss10.jpg     	plant2   	7	moss      	25	moss10      	259	alive    	1	still	0	natural 	1	n	0	0    	 	0.0	0	71.6467008000473	71.7466907000635	0.0999899000162258
111208	100	117	stimuli\movNat\fire\mn_fire06.jpg                	1	2	1	mn_fire06.jpg        	movNat   	3	fire      	15	fire06      	155	not_alive	0	moves	1	natural 	1	n	0	0    	 	0.0	0	71.7966937000165	71.8966874000616	0.0999937000451609
111358	100	118	stimuli\movArt\boat\ma_boat07.jpg                	1	2	1	ma_boat07.jpg        	movArt   	2	boat      	2	boat07      	26	not_alive	0	moves	1	artefact	0	n	0	0    	 	0.0	0	71.9466913000215	72.046685700072	0.0999944000504911
111508	100	119	stimuli\nonmovArt\headphones\nma_headphones05.jpg	1	2	1	nma_headphones05.jpg 	nonmovArt	4	headphones	18	headphones05	184	not_alive	0	still	0	artefact	0	n	0	0    	 	0.0	0	72.0966959000798	72.19668450008609	0.09998860000632699
111658	100	120	stimuli\plant\cactus\plant_cactus05.jpg          	1	2	1	plant_cactus05.jpg   	plant    	6	cactus    	4	cactus05    	44	alive    	1	still	0	natural 	1	n	0	0    	 	0.0	0	72.24669270007871	72.3466841999907	0.0999914999119937
111808	100	121	stimuli\movArt\boat\ma_boat08.jpg                	1	2	1	ma_boat08.jpg        	movArt   	2	boat      	2	boat08      	27	not_alive	0	moves	1	artefact	0	n	0	0    	 	0.0	0	72.39669170009441	72.496678500087	0.0999867999926209
111958	100	122	stimuli\plant2\lemontree\plant_lemontree09.jpg   	1	2	1	plant_lemontree09.jpg	plant2   	7	lemontree 	22	lemontree09 	228	alive    	1	still	0	natural 	1	n	0	0    	 	0.0	0	72.546684000059	72.6466813000152	0.0999972999561578
112108	100	123	stimuli\animals\dog\animal_dog08.jpg             	1	2	1	animal_dog08.jpg     	animals  	0	dog       	11	dog08       	117	alive    	1	moves	1	natural 	1	n	0	0    	 	0.0	0	72.69668779999479	72.79668090003541	0.0999931000405922
112258	100	124	stimuli\nonmovNat\shell\nmn_shell10.jpg          	1	2	1	nmn_shell10.jpg      	nonmovNat	5	shell     	32	shell10     	329	not_alive	0	still	0	natural 	1	n	0	0    	 	0.0	0	72.8466804000782	72.9466733000008	0.09999289992265402
112408	100	125	stimuli\plant\flower\plant_flower03.jpg          	1	2	1	plant_flower03.jpg   	plant    	6	flower    	16	flower03    	162	alive    	1	still	0	natural 	1	n	0	0    	 	0.0	0	72.996686700033	73.0966956000775	0.100008900044486
112558	100	126	stimuli\movNat\fire\mn_fire02.jpg                	1	2	1	mn_fire02.jpg        	movNat   	3	fire      	15	fire02      	151	not_alive	0	moves	1	natural 	1	n	0	0    	 	0.0	0	73.14670520008079	73.2466747000581	0.0999694999773055
112708	100	127	stimuli\nonmovArt\mug\nma_mug05.jpg              	1	2	1	nma_mug05.jpg        	nonmovArt	4	mug       	26	mug05       	264	not_alive	0	still	0	artefact	0	n	0	0    	 	0.0	0	73.29668260004841	73.3966732000699	0.099990600021556
112858	100	128	stimuli\nonmovNat\rock\nmn_rock07.jpg            	1	2	1	nmn_rock07.jpg       	nonmovNat	5	rock      	30	rock07      	306	not_alive	0	still	0	natural 	1	n	0	0    	 	0.0	0	73.4466819000663	73.546669100062	0.0999871999956667
113008	100	129	stimuli\nonmovNat\rock\nmn_rock05.jpg            	1	2	1	nmn_rock05.jpg       	nonmovNat	5	rock      	30	rock05      	304	not_alive	0	still	0	natural 	1	n	0	0    	 	0.0	0	73.5966816000873	73.69667079998179	0.0999891998944804
113158	100	130	stimuli\animals\horse\animal_horse03.jpg         	1	2	1	animal_horse03.jpg   	animals  	0	horse     	20	horse03     	202	alive    	1	moves	1	natural 	1	n	0	0    	 	0.0	0	73.7466787000885	73.84666260005909	0.0999838999705389
113308	100	131	stimuli\nonmovNat\crystal\nmn_crystal03.jpg      	1	2	1	nmn_crystal03.jpg    	nonmovNat	5	crystal   	10	crystal03   	102	not_alive	0	still	0	natural 	1	n	0	0    	 	0.0	0	73.89667709998321	73.9966659999918	0.0999889000086113
113458	100	132	stimuli\movArt\train\ma_train08.jpg              	1	2	1	ma_train08.jpg       	movArt   	2	train     	34	train08     	347	not_alive	0	moves	1	artefact	0	n	0	0    	 	0.0	0	74.0466748999897	74.1466663000174	0.0999914000276476
113608	100	133	stimuli\plant2\palmtree\plant_palmtree09.jpg     	1	2	1	plant_palmtree09.jpg 	plant2   	7	palmtree  	27	palmtree09  	278	alive    	1	still	0	natural 	1	n	0	0    	 	0.0	0	74.19668430008458	74.2966633000178	0.0999789999332279
113758	100	134	stimuli\nonmovNat\cliff\nmn_cliff08.jpg          	1	2	1	nmn_cliff08.jpg      	nonmovNat	5	cliff     	7	cliff08     	77	not_alive	0	still	0	natural 	1	n	0	0    	 	0.0	0	74.3466667000903	74.4466562999878	0.0999895998975262
113908	100	135	stimuli\nonmovArt\clothespeg\nma_clothespeg06.jpg	1	2	1	nma_clothespeg06.jpg 	nonmovArt	4	clothespeg	8	clothespeg06	85	not_alive	0	still	0	artefact	0	n	0	0    	 	0.0	0	74.4966713000322	74.596661800053	0.0999905000207945
114058	100	136	stimuli\nonmovNat\sand\nmn_sand03.jpg            	1	2	1	nmn_sand03.jpg       	nonmovNat	5	sand      	31	sand03      	312	not_alive	0	still	0	natural 	1	n	0	0    	 	0.0	0	74.6466628999915	74.7466668999987	0.100004000007175
114208	100	137	stimuli\animals2\bee\animal_bee01.jpg            	1	2	1	animal_bee01.jpg     	animals2 	1	bee       	0	bee01       	0	alive    	1	moves	1	natural 	1	n	0	0    	 	0.0	0	74.7966718000825	74.896677199984	0.10000539990141999
114358	100	138	stimuli\plant2\clover\plant_clover05.jpg         	1	2	1	plant_clover05.jpg   	plant2   	7	clover    	9	clover05    	94	alive    	1	still	0	natural 	1	n	0	0    	 	0.0	0	74.94668020005341	75.0466572000878	0.0999770000344142
114508	100	139	stimuli\plant2\clover\plant_clover03.jpg         	1	2	1	plant_clover03.jpg   	plant2   	7	clover    	9	clover03    	92	alive    	1	still	0	natural 	1	n	0	0    	 	0.0	0	75.0966631000629	75.19665050006009	0.0999873999971896
114658	100	140	stimuli\movNat\waves\mn_waves08.jpg              	1	2	1	mn_waves08.jpg       	movNat   	3	waves     	38	waves08     	387	not_alive	0	moves	1	natural 	1	n	0	0    	 	0.0	0	75.2466602000641	75.34665490000042	0.0999946999363601
114808	100	141	stimuli\nonmovArt\headphones\nma_headphones05.jpg	1	2	1	nma_headphones05.jpg 	nonmovArt	4	headphones	18	headphones05	184	not_alive	0	still	0	artefact	0	n	0	1    	f	0.0	0	75.3966625999892	75.4966460000724	0.09998340008314699
114958	100	142	stimuli\movNat\waves\mn_waves08.jpg              	1	2	1	mn_waves08.jpg       	movNat   	3	waves     	38	waves08     	387	not_alive	0	moves	1	natural 	1	n	0	0    	 	0.0	0	75.546660699998	75.6466501000104	0.0999894000124186
115108	100	143	stimuli\movArt\helicopter\ma_helicopter03.jpg    	1	2	1	ma_helicopter03.jpg  	movArt   	2	helicopter	19	helicopter03	192	not_alive	0	moves	1	artefact	0	n	0	0    	 	0.0	0	75.6966592000099	75.796650400036	0.0999912000261247
115258	100	144	stimuli\plant2\moss\plant_moss07.jpg             	1	2	1	plant_moss07.jpg     	plant2   	7	moss      	25	moss07      	256	alive    	1	still	0	natural 	1	n	0	0    	 	0.0	0	75.84665600000879	75.9466484000441	0.0999924000352621
115408	100	145	stimuli\movNat\hotspring\mn_hotspring05.jpg      	1	2	1	mn_hotspring05.jpg   	movNat   	3	hotspring 	21	hotspring05 	214	not_alive	0	moves	1	natural 	1	n	0	0    	 	0.0	0	75.9966559000313	76.0966470000567	0.0999911000253632
115558	100	146	stimuli\movArt\boat\ma_boat09.jpg                	1	2	1	ma_boat09.jpg        	movArt   	2	boat      	2	boat09      	28	not_alive	0	moves	1	artefact	0	n	0	0    	 	0.0	0	76.1466489000013	76.2466444000602	0.09999550005886698
115708	100	147	stimuli\plant2\lemontree\plant_lemontree01.jpg   	1	2	1	plant_lemontree01.jpg	plant2   	7	lemontree 	22	lemontree01 	220	alive    	1	still	0	natural 	1	n	0	0    	 	0.0	0	76.2966467000078	76.39663840003779	0.0999917000299319
115858	100	148	stimuli\animals2\whale\animal_whale03.jpg        	1	2	1	animal_whale03.jpg   	animals2 	1	whale     	39	whale03     	392	alive    	1	moves	1	natural 	1	n	0	0    	 	0.0	0	76.44664450001441	76.5466420000885	0.09999750007409598
116008	100	149	stimuli\plant\tree\plant_tree03.jpg              	1	2	1	plant_tree03.jpg     	plant    	6	tree      	35	tree03      	352	alive    	1	still	0	natural 	1	n	0	0    	 	0.0	0	76.5966399000026	76.6966550000943	0.100015100091696
116158	100	150	stimuli\animals\horse\animal_horse03.jpg         	1	2	1	animal_horse03.jpg   	animals  	0	horse     	20	horse03     	202	alive    	1	moves	1	natural 	1	n	0	0    	 	0.0	0	76.7466792000923	76.846638499992	0.0999592998996377
116308	100	151	stimuli\animals\eagle\animal_eagle01.jpg         	1	2	1	animal_eagle01.jpg   	animals  	0	eagle     	13	eagle01     	130	alive    	1	moves	1	natural 	1	n	0	0    	 	0.0	0	76.8966418000637	76.99742190004329	0.10078009997960198
116459	100	152	stimuli\plant2\lemontree\plant_lemontree01.jpg   	1	2	1	plant_lemontree01.jpg	plant2   	7	lemontree 	22	lemontree01 	220	alive    	1	still	0	natural 	1	n	0	0    	 	0.0	0	77.0475375000387	77.147423800081	0.0998863000422716
116609	100	153	stimuli\nonmovNat\shell\nmn_shell08.jpg          	1	2	1	nmn_shell08.jpg      	nonmovNat	5	shell     	32	shell08     	327	not_alive	0	still	0	natural 	1	n	0	0    	 	0.0	0	77.1975311000133	77.2974495000672	0.0999184000538662
116759	100	154	stimuli\movNat\waterfall\mn_waterfall07.jpg      	1	2	1	mn_waterfall07.jpg   	movNat   	3	waterfall 	37	waterfall07 	376	not_alive	0	moves	1	natural 	1	n	0	0    	 	0.0	0	77.34752910002129	77.44741540006359	0.0998863000422716
116908	100	155	stimuli\nonmovArt\mug\nma_mug07.jpg              	1	2	1	nma_mug07.jpg        	nonmovArt	4	mug       	26	mug07       	266	not_alive	0	still	0	artefact	0	n	0	0    	 	0.0	0	77.4975043000886	77.5974273000611	0.0999229999724775
117059	100	156	stimuli\nonmovArt\headphones\nma_headphones08.jpg	1	2	1	nma_headphones08.jpg 	nonmovArt	4	headphones	18	headphones08	187	not_alive	0	still	0	artefact	0	n	0	0    	 	0.0	0	77.6475243000313	77.7474137999816	0.0998894999502226
117208	100	157	stimuli\animals2\whale\animal_whale03.jpg        	1	2	1	animal_whale03.jpg   	animals2 	1	whale     	39	whale03     	392	alive    	1	moves	1	natural 	1	n	0	0    	 	0.0	0	77.7974965000758	77.8974054000573	0.0999088999815285
117358	100	158	stimuli\animals\horse\animal_horse01.jpg         	1	2	1	animal_horse01.jpg   	animals  	0	horse     	20	horse01     	200	alive    	1	moves	1	natural 	1	n	0	0    	 	0.0	0	77.9474923000671	78.04743969999251	0.0999473999254405
117508	100	159	stimuli\animals\dolphin\animal_dolphin06.jpg     	1	2	1	animal_dolphin06.jpg 	animals  	0	dolphin   	12	dolphin06   	125	alive    	1	moves	1	natural 	1	n	0	0    	 	0.0	0	78.097499400028	78.1974191000918	0.099919700063765
120225	100	160	stimuli\movNat\fire\mn_fire09.jpg                	1	3	1	mn_fire09.jpg        	movNat   	3	fire      	15	fire09      	158	not_alive	0	moves	1	natural 	1	n	0	0    	 	0.0	0	80.8141548000276	80.91406560002359	0.099910799995996
120375	100	161	stimuli\plant\grass\plant_grass07.jpg            	1	3	1	plant_grass07.jpg    	plant    	6	grass     	17	grass07     	176	alive    	1	still	0	natural 	1	n	0	0    	 	0.0	0	80.964141100063	81.0640533000697	0.0999122000066563
120525	100	162	stimuli\nonmovNat\shell\nmn_shell02.jpg          	1	3	1	nmn_shell02.jpg      	nonmovNat	5	shell     	32	shell02     	321	not_alive	0	still	0	natural 	1	n	0	0    	 	0.0	0	81.11416090000421	81.2140513000777	0.099890400073491
120675	100	163	stimuli\animals\cat\animal_cat09.jpg             	1	3	1	animal_cat09.jpg     	animals  	0	cat       	6	cat09       	68	alive    	1	moves	1	natural 	1	n	0	0    	 	0.0	0	81.26413080003108	81.364110100083	0.0999793000519275
120825	100	164	stimuli\nonmovArt\clothespeg\nma_clothespeg04.jpg	1	3	1	nma_clothespeg04.jpg 	nonmovArt	4	clothespeg	8	clothespeg04	83	not_alive	0	still	0	artefact	0	n	0	0    	 	0.0	0	81.414131400059	81.5140430000611	0.0999116000020876
120975	100	165	stimuli\animals\cat\animal_cat01.jpg             	1	3	1	animal_cat01.jpg     	animals  	0	cat       	6	cat01       	60	alive    	1	moves	1	natural 	1	n	0	0    	 	0.0	0	81.56414670008229	81.66404599999079	0.0998992999084293
121125	100	166	stimuli\nonmovNat\sand\nmn_sand05.jpg            	1	3	1	nmn_sand05.jpg       	nonmovNat	5	sand      	31	sand05      	314	not_alive	0	still	0	natural 	1	n	0	0    	 	0.0	0	81.71412260003859	81.8140427999897	0.0999201999511569
121275	100	167	stimuli\plant2\fern\plant_fern10.jpg             	1	3	1	plant_fern10.jpg     	plant2   	7	fern      	14	fern10      	149	alive    	1	still	0	natural 	1	n	0	0    	 	0.0	0	81.8641455000034	81.9640362000791	0.0998907000757753
121425	100	168	stimuli\movArt\bus\ma_bus06.jpg                  	1	3	1	ma_bus06.jpg         	movArt   	2	bus       	3	bus06       	35	not_alive	0	moves	1	artefact	0	n	0	0    	 	0.0	0	82.0141203000676	82.1140465000644	0.0999261999968439
121575	100	169	stimuli\movArt\helicopter\ma_helicopter10.jpg    	1	3	1	ma_helicopter10.jpg  	movArt   	2	helicopter	19	helicopter10	199	not_alive	0	moves	1	artefact	0	n	0	0    	 	0.0	0	82.1641090000048	82.2640500999987	0.0999410999938845
121725	100	170	stimuli\animals2\bee\animal_bee02.jpg            	1	3	1	animal_bee02.jpg     	animals2 	1	bee       	0	bee02       	1	alive    	1	moves	1	natural 	1	n	0	0    	 	0.0	0	82.3141189999878	82.4140400000615	0.0999210000736638
121875	100	171	stimuli\nonmovArt\lock\nma_lock08.jpg            	1	3	1	nma_lock08.jpg       	nonmovArt	4	lock      	24	lock08      	247	not_alive	0	still	0	artefact	0	n	0	0    	 	0.0	0	82.46414440008809	82.56403260002841	0.0998881999403238
122025	100	172	stimuli\animals\dolphin\animal_dolphin10.jpg     	1	3	1	animal_dolphin10.jpg 	animals  	0	dolphin   	12	dolphin10   	129	alive    	1	moves	1	natural 	1	n	0	0    	 	0.0	0	82.61413400003221	82.7140404999954	0.0999064999632537
122175	100	173	stimuli\animals2\bee\animal_bee10.jpg            	1	3	1	animal_bee10.jpg     	animals2 	1	bee       	0	bee10       	9	alive    	1	moves	1	natural 	1	n	0	0    	 	0.0	0	82.7641469000373	82.8640236000065	0.0998766999691724
122325	100	174	stimuli\movNat\waterfall\mn_waterfall02.jpg      	1	3	1	mn_waterfall02.jpg   	movNat   	3	waterfall 	37	waterfall02 	371	not_alive	0	moves	1	natural 	1	n	0	0    	 	0.0	0	82.9141017000657	83.0140295000747	0.0999278000090271
122475	100	175	stimuli\plant\tree\plant_tree02.jpg              	1	3	1	plant_tree02.jpg     	plant    	6	tree      	35	tree02      	351	alive    	1	still	0	natural 	1	n	0	0    	 	0.0	0	83.06413459999021	83.164037700044	0.0999031000537797
122625	100	176	stimuli\animals2\tiger\animal_tiger05.jpg        	1	3	1	animal_tiger05.jpg   	animals2 	1	tiger     	33	tiger05     	334	alive    	1	moves	1	natural 	1	n	0	0    	 	0.0	0	83.2141260000644	83.3140220000641	0.0998959999997168
122775	100	177	stimuli\animals\eagle\animal_eagle05.jpg         	1	3	1	animal_eagle05.jpg   	animals  	0	eagle     	13	eagle05     	134	alive    	1	moves	1	natural 	1	n	0	0    	 	0.0	0	83.3641163000138	83.464023699984	0.0999073999701067
122925	100	178	stimuli\plant2\fern\plant_fern07.jpg             	1	3	1	plant_fern07.jpg     	plant2   	7	fern      	14	fern07      	146	alive    	1	still	0	natural 	1	n	0	0    	 	0.0	0	83.5141231000889	83.6140272000339	0.0999040999449789
123075	100	179	stimuli\animals\dolphin\animal_dolphin10.jpg     	1	3	1	animal_dolphin10.jpg 	animals  	0	dolphin   	12	dolphin10   	129	alive    	1	moves	1	natural 	1	n	0	0    	 	0.0	0	83.6641159000574	83.764011500054	0.09989559999667098
123225	100	180	stimuli\plant2\palmtree\plant_palmtree03.jpg     	1	3	1	plant_palmtree03.jpg 	plant2   	7	palmtree  	27	palmtree03  	272	alive    	1	still	0	natural 	1	n	0	0    	 	0.0	0	83.8141026000958	83.91402110003399	0.0999184999382123
123375	100	181	stimuli\movArt\car\ma_car03.jpg                  	1	3	1	ma_car03.jpg         	movArt   	2	car       	5	car03       	52	not_alive	0	moves	1	artefact	0	n	0	0    	 	0.0	0	83.96410830004609	84.06402350007559	0.0999152000294998
123525	100	182	stimuli\movArt\car\ma_car08.jpg                  	1	3	1	ma_car08.jpg         	movArt   	2	car       	5	car08       	57	not_alive	0	moves	1	artefact	0	n	0	0    	 	0.0	0	84.1140966000967	84.21402559999841	0.0999289999017492
123675	100	183	stimuli\plant\tree\plant_tree06.jpg              	1	3	1	plant_tree06.jpg     	plant    	6	tree      	35	tree06      	355	alive    	1	still	0	natural 	1	n	0	0    	 	0.0	0	84.26410820009191	84.3640038000886	0.09989559999667098
123825	100	184	stimuli\nonmovArt\bench\nma_bench01.jpg          	1	3	1	nma_bench01.jpg      	nonmovArt	4	bench     	1	bench01     	10	not_alive	0	still	0	artefact	0	n	1	0    	 	0.0	0	84.4140883000801	84.51400770002509	0.0999193999450653
123975	100	185	stimuli\plant\vine\plant_vine06.jpg              	1	3	1	plant_vine06.jpg     	plant    	6	vine      	36	vine06      	365	alive    	1	still	0	natural 	1	n	0	0    	 	0.0	0	84.56412310001909	84.6640054000309	0.0998823000118136
124125	100	186	stimuli\nonmovArt\bench\nma_bench07.jpg          	1	3	1	nma_bench07.jpg      	nonmovArt	4	bench     	1	bench07     	16	not_alive	0	still	0	artefact	0	n	0	1    	f	0.30019199999515	1	84.71408870001319	84.8140175000299	0.0999288000166416
124275	100	187	stimuli\plant\flower\plant_flower10.jpg          	1	3	1	plant_flower10.jpg   	plant    	6	flower    	16	flower10    	169	alive    	1	still	0	natural 	1	n	0	0    	 	0.0	0	84.8641516000498	84.9640279000159	0.0998762999661266
124425	100	188	stimuli\movNat\river\mn_river04.jpg              	1	3	1	mn_river04.jpg       	movNat   	3	river     	29	river04     	293	not_alive	0	moves	1	natural 	1	n	0	0    	 	0.0	0	85.01410540007049	85.11400390008929	0.0998985000187531
124575	100	189	stimuli\movNat\waves\mn_waves04.jpg              	1	3	1	mn_waves04.jpg       	movNat   	3	waves     	38	waves04     	383	not_alive	0	moves	1	natural 	1	n	0	0    	 	0.0	0	85.1641113000223	85.26401710009671	0.0999058000743389
124725	100	190	stimuli\plant\grass\plant_grass05.jpg            	1	3	1	plant_grass05.jpg    	plant    	6	grass     	17	grass05     	174	alive    	1	still	0	natural 	1	n	0	0    	 	0.0	0	85.31409590004479	85.4140096000628	0.09991370001807799
124875	100	191	stimuli\plant\vine\plant_vine10.jpg              	1	3	1	plant_vine10.jpg     	plant    	6	vine      	36	vine10      	369	alive    	1	still	0	natural 	1	n	0	0    	 	0.0	0	85.464089200017	85.5640104000922	0.0999212000751868
125025	100	192	stimuli\plant2\clover\plant_clover09.jpg         	1	3	1	plant_clover09.jpg   	plant2   	7	clover    	9	clover09    	98	alive    	1	still	0	natural 	1	n	0	0    	 	0.0	0	85.6141073000617	85.7139920000918	0.0998847000300884
125175	100	193	stimuli\plant2\fern\plant_fern04.jpg             	1	3	1	plant_fern04.jpg     	plant2   	7	fern      	14	fern04      	143	alive    	1	still	0	natural 	1	n	0	0    	 	0.0	0	85.76408520003321	85.8639978000428	0.0999126000097021
125325	100	194	stimuli\plant\cactus\plant_cactus10.jpg          	1	3	1	plant_cactus10.jpg   	plant    	6	cactus    	4	cactus10    	49	alive    	1	still	0	natural 	1	n	0	0    	 	0.0	0	85.91408000001681	86.0139990000753	0.0999190000584349
125475	100	195	stimuli\animals2\lemur\animal_lemur09.jpg        	1	3	1	animal_lemur09.jpg   	animals2 	1	lemur     	23	lemur09     	238	alive    	1	moves	1	natural 	1	n	0	0    	 	0.0	0	86.0640889999922	86.1639943000628	0.0999053000705316
125625	100	196	stimuli\animals\dog\animal_dog06.jpg             	1	3	1	animal_dog06.jpg     	animals  	0	dog       	11	dog06       	115	alive    	1	moves	1	natural 	1	n	0	0    	 	0.0	0	86.21409180003691	86.3140116999857	0.0999198999488726
125775	100	197	stimuli\nonmovNat\sand\nmn_sand08.jpg            	1	3	1	nmn_sand08.jpg       	nonmovNat	5	sand      	31	sand08      	317	not_alive	0	still	0	natural 	1	n	0	0    	 	0.0	0	86.36405119998379	86.4640132000204	0.0999620000366121
125925	100	198	stimuli\movArt\boat\ma_boat01.jpg                	1	3	1	ma_boat01.jpg        	movArt   	2	boat      	2	boat01      	20	not_alive	0	moves	1	artefact	0	n	0	0    	 	0.0	0	86.51408440002709	86.6139920999995	0.0999076999723911
126075	100	199	stimuli\plant2\moss\plant_moss09.jpg             	1	3	1	plant_moss09.jpg     	plant2   	7	moss      	25	moss09      	258	alive    	1	still	0	natural 	1	n	0	0    	 	0.0	0	86.6640865000663	86.76399460004178	0.0999080999754369
126225	100	200	stimuli\animals\eagle\animal_eagle04.jpg         	1	3	1	animal_eagle04.jpg   	animals  	0	eagle     	13	eagle04     	133	alive    	1	moves	1	natural 	1	n	0	0    	 	0.0	0	86.8140876999823	86.9139947000658	0.0999070000834763
126375	100	201	stimuli\movNat\river\mn_river10.jpg              	1	3	1	mn_river10.jpg       	movNat   	3	river     	29	river10     	299	not_alive	0	moves	1	natural 	1	n	0	0    	 	0.0	0	86.96406890009528	87.06397780007678	0.0999088999815285
126525	100	202	stimuli\animals2\pigeon\animal_pigeon02.jpg      	1	3	1	animal_pigeon02.jpg  	animals2 	1	pigeon    	28	pigeon02    	281	alive    	1	moves	1	natural 	1	n	0	0    	 	0.0	0	87.11408309999392	87.21398800006139	0.0999049000674858
126675	100	203	stimuli\nonmovArt\bench\nma_bench07.jpg          	1	3	1	nma_bench07.jpg      	nonmovArt	4	bench     	1	bench07     	16	not_alive	0	still	0	artefact	0	n	0	0    	 	0.0	0	87.2640719000483	87.3639931000071	0.0999211999587714
126825	100	204	stimuli\nonmovArt\lock\nma_lock06.jpg            	1	3	1	nma_lock06.jpg       	nonmovArt	4	lock      	24	lock06      	245	not_alive	0	still	0	artefact	0	n	0	0    	 	0.0	0	87.4141121000284	87.5139883999946	0.0998762999661266
126975	100	205	stimuli\nonmovArt\clothespeg\nma_clothespeg05.jpg	1	3	1	nma_clothespeg05.jpg 	nonmovArt	4	clothespeg	8	clothespeg05	84	not_alive	0	still	0	artefact	0	n	0	0    	 	0.0	0	87.5640649000416	87.66399560007271	0.0999307000311091
127125	100	206	stimuli\movNat\hotspring\mn_hotspring09.jpg      	1	3	1	mn_hotspring09.jpg   	movNat   	3	hotspring 	21	hotspring09 	218	not_alive	0	moves	1	natural 	1	n	0	0    	 	0.0	0	87.7140632000519	87.8140253000893	0.0999621000373736
127275	100	207	stimuli\nonmovNat\cliff\nmn_cliff08.jpg          	1	3	1	nmn_cliff08.jpg      	nonmovNat	5	cliff     	7	cliff08     	77	not_alive	0	still	0	natural 	1	n	0	0    	 	0.0	0	87.86407540005159	87.96399389998992	0.0999184999382123
127425	100	208	stimuli\animals2\tiger\animal_tiger01.jpg        	1	3	1	animal_tiger01.jpg   	animals2 	1	tiger     	33	tiger01     	330	alive    	1	moves	1	natural 	1	n	0	0    	 	0.0	0	88.01406110008249	88.1141454000026	0.100084299920127
127575	100	209	stimuli\animals\dog\animal_dog05.jpg             	1	3	1	animal_dog05.jpg     	animals  	0	dog       	11	dog05       	114	alive    	1	moves	1	natural 	1	n	0	0    	 	0.0	0	88.1640919999918	88.2639848000836	0.0998928000917658
127725	100	210	stimuli\movArt\bus\ma_bus04.jpg                  	1	3	1	ma_bus04.jpg         	movArt   	2	bus       	3	bus04       	33	not_alive	0	moves	1	artefact	0	n	1	0    	 	0.0	0	88.3140595000004	88.41395419999029	0.099894699989818
127875	100	211	stimuli\movArt\train\ma_train04.jpg              	1	3	1	ma_train04.jpg       	movArt   	2	train     	34	train04     	343	not_alive	0	moves	1	artefact	0	n	0	0    	 	0.0	0	88.4640793000581	88.56396240007601	0.0998831000179052
128025	100	212	stimuli\animals2\pigeon\animal_pigeon02.jpg      	1	3	1	animal_pigeon02.jpg  	animals2 	1	pigeon    	28	pigeon02    	281	alive    	1	moves	1	natural 	1	n	0	1    	f	0.39196889998856893	1	88.6140509999823	88.71397939999589	0.0999284000135958
128175	100	213	stimuli\plant\flower\plant_flower08.jpg          	1	3	1	plant_flower08.jpg   	plant    	6	flower    	16	flower08    	167	alive    	1	still	0	natural 	1	n	0	0    	 	0.0	0	88.76405180001171	88.8639689000556	0.0999171000439673
128325	100	214	stimuli\animals\cat\animal_cat03.jpg             	1	3	1	animal_cat03.jpg     	animals  	0	cat       	6	cat03       	62	alive    	1	moves	1	natural 	1	n	0	0    	 	0.0	0	88.9140588000882	89.01397490000821	0.0999160999199375
128475	100	215	stimuli\animals2\lemur\animal_lemur03.jpg        	1	3	1	animal_lemur03.jpg   	animals2 	1	lemur     	23	lemur03     	232	alive    	1	moves	1	natural 	1	n	0	0    	 	0.0	0	89.0640677000629	89.163973000017	0.0999052999541163
128625	100	216	stimuli\movNat\river\mn_river01.jpg              	1	3	1	mn_river01.jpg       	movNat   	3	river     	29	river01     	290	not_alive	0	moves	1	natural 	1	n	0	0    	 	0.0	0	89.21405509999019	89.31397180003108	0.0999167000409215
128775	100	217	stimuli\animals2\whale\animal_whale05.jpg        	1	3	1	animal_whale05.jpg   	animals2 	1	whale     	39	whale05     	394	alive    	1	moves	1	natural 	1	n	0	0    	 	0.0	0	89.36404920008499	89.4639571000589	0.09990789997391401
128925	100	218	stimuli\plant\cactus\plant_cactus03.jpg          	1	3	1	plant_cactus03.jpg   	plant    	6	cactus    	4	cactus03    	42	alive    	1	still	0	natural 	1	n	0	0    	 	0.0	0	89.51404540007928	89.61396260000771	0.0999171999283135
129075	100	219	stimuli\nonmovArt\lock\nma_lock10.jpg            	1	3	1	nma_lock10.jpg       	nonmovArt	4	lock      	24	lock10      	249	not_alive	0	still	0	artefact	0	n	0	0    	 	0.0	0	89.66405490005859	89.76396420004309	0.0999092999845743
129225	100	220	stimuli\nonmovNat\rock\nmn_rock06.jpg            	1	3	1	nmn_rock06.jpg       	nonmovNat	5	rock      	30	rock06      	305	not_alive	0	still	0	natural 	1	n	0	0    	 	0.0	0	89.8140367000597	89.9139182000654	0.09988150000572199
129375	100	221	stimuli\nonmovNat\crystal\nmn_crystal10.jpg      	1	3	1	nmn_crystal10.jpg    	nonmovNat	5	crystal   	10	crystal10   	109	not_alive	0	still	0	natural 	1	n	0	0    	 	0.0	0	89.96403860009741	90.0639530000044	0.0999143999069929
129525	100	222	stimuli\nonmovArt\mug\nma_mug04.jpg              	1	3	1	nma_mug04.jpg        	nonmovArt	4	mug       	26	mug04       	263	not_alive	0	still	0	artefact	0	n	0	0    	 	0.0	0	90.1140502000926	90.2139630999882	0.0999128998955711
129675	100	223	stimuli\movArt\train\ma_train03.jpg              	1	3	1	ma_train03.jpg       	movArt   	2	train     	34	train03     	342	not_alive	0	moves	1	artefact	0	n	0	0    	 	0.0	0	90.2640540000284	90.3639578000875	0.0999038000591099
129825	100	224	stimuli\movArt\car\ma_car10.jpg                  	1	3	1	ma_car10.jpg         	movArt   	2	car       	5	car10       	59	not_alive	0	moves	1	artefact	0	n	0	0    	 	0.0	0	90.414042300079	90.51394269999581	0.0999003999168053
129975	100	225	stimuli\movArt\bus\ma_bus01.jpg                  	1	3	1	ma_bus01.jpg         	movArt   	2	bus       	3	bus01       	30	not_alive	0	moves	1	artefact	0	n	0	0    	 	0.0	0	90.56403850007341	90.6639619000489	0.0999233999755233
130125	100	226	stimuli\animals2\tiger\animal_tiger06.jpg        	1	3	1	animal_tiger06.jpg   	animals2 	1	tiger     	33	tiger06     	335	alive    	1	moves	1	natural 	1	n	0	0    	 	0.0	0	90.714047000045	90.81395690003409	0.09990989998914301
130275	100	227	stimuli\plant\grass\plant_grass05.jpg            	1	3	1	plant_grass05.jpg    	plant    	6	grass     	17	grass05     	174	alive    	1	still	0	natural 	1	n	0	0    	 	0.0	0	90.86405209999072	90.96395440003842	0.0999023000476882
130425	100	228	stimuli\animals2\pigeon\animal_pigeon01.jpg      	1	3	1	animal_pigeon01.jpg  	animals2 	1	pigeon    	28	pigeon01    	280	alive    	1	moves	1	natural 	1	n	0	0    	 	0.0	0	91.01404600008391	91.1139535000548	0.0999074999708682
130575	100	229	stimuli\plant2\palmtree\plant_palmtree02.jpg     	1	3	1	plant_palmtree02.jpg 	plant2   	7	palmtree  	27	palmtree02  	271	alive    	1	still	0	natural 	1	n	0	0    	 	0.0	0	91.1640481000068	91.26393620006269	0.0998881000559777
130725	100	230	stimuli\nonmovArt\headphones\nma_headphones03.jpg	1	3	1	nma_headphones03.jpg 	nonmovArt	4	headphones	18	headphones03	182	not_alive	0	still	0	artefact	0	n	0	0    	 	0.0	0	91.31402150006029	91.41394390002822	0.0999223999679088
130875	100	231	stimuli\animals2\lemur\animal_lemur04.jpg        	1	3	1	animal_lemur04.jpg   	animals2 	1	lemur     	23	lemur04     	233	alive    	1	moves	1	natural 	1	n	0	0    	 	0.0	0	91.4640270000091	91.563951499993	0.0999244999838993
131025	100	232	stimuli\movNat\waterfall\mn_waterfall06.jpg      	1	3	1	mn_waterfall06.jpg   	movNat   	3	waterfall 	37	waterfall06 	375	not_alive	0	moves	1	natural 	1	n	0	0    	 	0.0	0	91.6140247000148	91.71391510008829	0.099890400073491
131175	100	233	stimuli\plant2\moss\plant_moss01.jpg             	1	3	1	plant_moss01.jpg     	plant2   	7	moss      	25	moss01      	250	alive    	1	still	0	natural 	1	n	0	0    	 	0.0	0	91.76403429999479	91.864293300081	0.10025900008622501
131325	100	234	stimuli\movNat\hotspring\mn_hotspring06.jpg      	1	3	1	mn_hotspring06.jpg   	movNat   	3	hotspring 	21	hotspring06 	215	not_alive	0	moves	1	natural 	1	n	0	0    	 	0.0	0	91.9140328000067	92.01394890004299	0.0999161000363528
131475	100	235	stimuli\movNat\fire\mn_fire02.jpg                	1	3	1	mn_fire02.jpg        	movNat   	3	fire      	15	fire02      	151	not_alive	0	moves	1	natural 	1	n	0	0    	 	0.0	0	92.0640171000268	92.16396540007558	0.0999483000487089
131625	100	236	stimuli\nonmovNat\cliff\nmn_cliff04.jpg          	1	3	1	nmn_cliff04.jpg      	nonmovNat	5	cliff     	7	cliff04     	73	not_alive	0	still	0	natural 	1	n	0	0    	 	0.0	0	92.214032900054	92.3139306000667	0.0998977000126615
131775	100	237	stimuli\nonmovNat\crystal\nmn_crystal05.jpg      	1	3	1	nmn_crystal05.jpg    	nonmovNat	5	crystal   	10	crystal05   	104	not_alive	0	still	0	natural 	1	n	0	0    	 	0.0	0	92.3640120000346	92.463949500001	0.0999374999664724
131925	100	238	stimuli\movArt\helicopter\ma_helicopter01.jpg    	1	3	1	ma_helicopter01.jpg  	movArt   	2	helicopter	19	helicopter01	190	not_alive	0	moves	1	artefact	0	n	0	0    	 	0.0	0	92.5140222000191	92.61393059999679	0.0999083999777212
132075	100	239	stimuli\plant\vine\plant_vine10.jpg              	1	3	1	plant_vine10.jpg     	plant    	6	vine      	36	vine10      	369	alive    	1	still	0	natural 	1	n	0	0    	 	0.0	0	92.6640237000538	92.7639444000088	0.0999206999549642
140909	100	240	stimuli\nonmovArt\headphones\nma_headphones09.jpg	1	4	1	nma_headphones09.jpg 	nonmovArt	4	headphones	18	headphones09	188	not_alive	0	still	0	artefact	0	n	0	0    	 	0.0	0	101.497307199985	101.597182900063	0.0998757000779733
141058	100	241	stimuli\movArt\train\ma_train02.jpg              	1	4	1	ma_train02.jpg       	movArt   	2	train     	34	train02     	341	not_alive	0	moves	1	artefact	0	n	0	0    	 	0.0	0	101.64726310002199	101.747173300013	0.0999101999914273
141208	100	242	stimuli\nonmovArt\mug\nma_mug10.jpg              	1	4	1	nma_mug10.jpg        	nonmovArt	4	mug       	26	mug10       	269	not_alive	0	still	0	artefact	0	n	0	0    	 	0.0	0	101.797256299993	101.897186000017	0.0999297000234946
141358	100	243	stimuli\plant2\fern\plant_fern09.jpg             	1	4	1	plant_fern09.jpg     	plant2   	7	fern      	14	fern09      	148	alive    	1	still	0	natural 	1	n	0	0    	 	0.0	0	101.94726380007299	102.047258200007	0.0999943999340757
141509	100	244	stimuli\movNat\hotspring\mn_hotspring02.jpg      	1	4	1	mn_hotspring02.jpg   	movNat   	3	hotspring 	21	hotspring02 	211	not_alive	0	moves	1	natural 	1	n	0	0    	 	0.0	0	102.097371699987	102.197241100017	0.099869400030002
141658	100	245	stimuli\nonmovNat\sand\nmn_sand07.jpg            	1	4	1	nmn_sand07.jpg       	nonmovNat	5	sand      	31	sand07      	316	not_alive	0	still	0	natural 	1	n	0	0    	 	0.0	0	102.247268400039	102.34717600001	0.0999075999716296
141808	100	246	stimuli\plant2\clover\plant_clover08.jpg         	1	4	1	plant_clover08.jpg   	plant2   	7	clover    	9	clover08    	97	alive    	1	still	0	natural 	1	n	0	0    	 	0.0	0	102.397258199984	102.49716660007799	0.0999084000941366
141958	100	247	stimuli\nonmovArt\clothespeg\nma_clothespeg10.jpg	1	4	1	nma_clothespeg10.jpg 	nonmovArt	4	clothespeg	8	clothespeg10	89	not_alive	0	still	0	artefact	0	n	0	0    	 	0.0	0	102.54725370009001	102.64716819999701	0.0999144999077543
142108	100	248	stimuli\plant2\fern\plant_fern05.jpg             	1	4	1	plant_fern05.jpg     	plant2   	7	fern      	14	fern05      	144	alive    	1	still	0	natural 	1	n	0	0    	 	0.0	0	102.697249600082	102.79717050003799	0.0999208999564871
142258	100	249	stimuli\nonmovNat\rock\nmn_rock03.jpg            	1	4	1	nmn_rock03.jpg       	nonmovNat	5	rock      	30	rock03      	302	not_alive	0	still	0	natural 	1	n	0	0    	 	0.0	0	102.847260200069	102.94715710007601	0.0998969000065699
142408	100	250	stimuli\plant2\clover\plant_clover05.jpg         	1	4	1	plant_clover05.jpg   	plant2   	7	clover    	9	clover05    	94	alive    	1	still	0	natural 	1	n	0	0    	 	0.0	0	102.997261099983	103.09716130001499	0.0999002000316977
142558	100	251	stimuli\plant2\palmtree\plant_palmtree09.jpg     	1	4	1	plant_palmtree09.jpg 	plant2   	7	palmtree  	27	palmtree09  	278	alive    	1	still	0	natural 	1	n	0	0    	 	0.0	0	103.147270300076	103.24717230000499	0.0999019999289885
142708	100	252	stimuli\nonmovArt\mug\nma_mug05.jpg              	1	4	1	nma_mug05.jpg        	nonmovArt	4	mug       	26	mug05       	264	not_alive	0	still	0	artefact	0	n	0	0    	 	0.0	0	103.29726510006	103.397160800057	0.0998956999974325
142858	100	253	stimuli\nonmovArt\headphones\nma_headphones10.jpg	1	4	1	nma_headphones10.jpg 	nonmovArt	4	headphones	18	headphones10	189	not_alive	0	still	0	artefact	0	n	0	0    	 	0.0	0	103.447239800007	103.547154800035	0.0999150000279769
143008	100	254	stimuli\plant2\palmtree\plant_palmtree06.jpg     	1	4	1	plant_palmtree06.jpg 	plant2   	7	palmtree  	27	palmtree06  	275	alive    	1	still	0	natural 	1	n	0	0    	 	0.0	0	103.597238800023	103.697155400063	0.0999166000401601
143158	100	255	stimuli\nonmovArt\lock\nma_lock03.jpg            	1	4	1	nma_lock03.jpg       	nonmovArt	4	lock      	24	lock03      	242	not_alive	0	still	0	artefact	0	n	0	0    	 	0.0	0	103.74727420008301	103.847264499986	0.0999902999028563
143309	100	256	stimuli\plant2\lemontree\plant_lemontree06.jpg   	1	4	1	plant_lemontree06.jpg	plant2   	7	lemontree 	22	lemontree06 	225	alive    	1	still	0	natural 	1	n	0	0    	 	0.0	0	103.897344400059	103.99720089999	0.09985649993177499
143458	100	257	stimuli\movNat\river\mn_river06.jpg              	1	4	1	mn_river06.jpg       	movNat   	3	river     	29	river06     	295	not_alive	0	moves	1	natural 	1	n	0	0    	 	0.0	0	104.047241099994	104.147158100037	0.0999170000432059
143608	100	258	stimuli\plant2\lemontree\plant_lemontree07.jpg   	1	4	1	plant_lemontree07.jpg	plant2   	7	lemontree 	22	lemontree07 	226	alive    	1	still	0	natural 	1	n	0	0    	 	0.0	0	104.197237899993	104.297161600087	0.09992370009422301
143758	100	259	stimuli\animals\dog\animal_dog04.jpg             	1	4	1	animal_dog04.jpg     	animals  	0	dog       	11	dog04       	113	alive    	1	moves	1	natural 	1	n	0	0    	 	0.0	0	104.347248200094	104.447155700065	0.0999074999708682
143908	100	260	stimuli\movNat\waterfall\mn_waterfall03.jpg      	1	4	1	mn_waterfall03.jpg   	movNat   	3	waterfall 	37	waterfall03 	372	not_alive	0	moves	1	natural 	1	n	0	0    	 	0.0	0	104.49722400005	104.597147700028	0.0999236999778077
144058	100	261	stimuli\plant\tree\plant_tree01.jpg              	1	4	1	plant_tree01.jpg     	plant    	6	tree      	35	tree01      	350	alive    	1	still	0	natural 	1	n	0	0    	 	0.0	0	104.647228499991	104.747144200024	0.09991570003330698
144208	100	262	stimuli\nonmovArt\bench\nma_bench04.jpg          	1	4	1	nma_bench04.jpg      	nonmovArt	4	bench     	1	bench04     	13	not_alive	0	still	0	artefact	0	n	0	0    	 	0.0	0	104.797233400051	104.89714020001699	0.09990679996553802
144358	100	263	stimuli\nonmovArt\mug\nma_mug04.jpg              	1	4	1	nma_mug04.jpg        	nonmovArt	4	mug       	26	mug04       	263	not_alive	0	still	0	artefact	0	n	0	0    	 	0.0	0	104.947233900079	105.04714520007799	0.0999112999998033
144508	100	264	stimuli\nonmovArt\bench\nma_bench10.jpg          	1	4	1	nma_bench10.jpg      	nonmovArt	4	bench     	1	bench10     	19	not_alive	0	still	0	artefact	0	n	0	0    	 	0.0	0	105.09723240009001	105.197141400073	0.0999089999822899
144658	100	265	stimuli\animals2\lemur\animal_lemur09.jpg        	1	4	1	animal_lemur09.jpg   	animals2 	1	lemur     	23	lemur09     	238	alive    	1	moves	1	natural 	1	n	0	0    	 	0.0	0	105.247228400083	105.347143799998	0.0999153999146074
144808	100	266	stimuli\movArt\bus\ma_bus09.jpg                  	1	4	1	ma_bus09.jpg         	movArt   	2	bus       	3	bus09       	38	not_alive	0	moves	1	artefact	0	n	0	0    	 	0.0	0	105.39722060004699	105.497138300096	0.09991770004853599
144959	100	267	stimuli\animals\horse\animal_horse06.jpg         	1	4	1	animal_horse06.jpg   	animals  	0	horse     	20	horse06     	205	alive    	1	moves	1	natural 	1	n	0	0    	 	0.0	0	105.54729070002199	105.647140700021	0.0998499999986961
145109	100	268	stimuli\movNat\fire\mn_fire05.jpg                	1	4	1	mn_fire05.jpg        	movNat   	3	fire      	15	fire05      	154	not_alive	0	moves	1	natural 	1	n	0	0    	 	0.0	0	105.697356100078	105.79713030008101	0.0997742000035941
145259	100	269	stimuli\plant\vine\plant_vine04.jpg              	1	4	1	plant_vine04.jpg     	plant    	6	vine      	36	vine04      	363	alive    	1	still	0	natural 	1	n	0	0    	 	0.0	0	105.847271900042	105.94713840005	0.0998665000079199
145408	100	270	stimuli\animals\horse\animal_horse01.jpg         	1	4	1	animal_horse01.jpg   	animals  	0	horse     	20	horse01     	200	alive    	1	moves	1	natural 	1	n	0	0    	 	0.0	0	105.997229100089	106.09713140001999	0.0999022999312728
145558	100	271	stimuli\movNat\waves\mn_waves03.jpg              	1	4	1	mn_waves03.jpg       	movNat   	3	waves     	38	waves03     	382	not_alive	0	moves	1	natural 	1	n	0	0    	 	0.0	0	106.1472297	106.247128000017	0.0998983000172302
145708	100	272	stimuli\movNat\hotspring\mn_hotspring06.jpg      	1	4	1	mn_hotspring06.jpg   	movNat   	3	hotspring 	21	hotspring06 	215	not_alive	0	moves	1	natural 	1	n	0	0    	 	0.0	0	106.29721520002899	106.397123800009	0.0999085999792441
145858	100	273	stimuli\movNat\fire\mn_fire10.jpg                	1	4	1	mn_fire10.jpg        	movNat   	3	fire      	15	fire10      	159	not_alive	0	moves	1	natural 	1	n	0	0    	 	0.0	0	106.447203800082	106.54712810006501	0.0999242999823764
146008	100	274	stimuli\plant2\lemontree\plant_lemontree04.jpg   	1	4	1	plant_lemontree04.jpg	plant2   	7	lemontree 	22	lemontree04 	223	alive    	1	still	0	natural 	1	n	0	0    	 	0.0	0	106.59724550007401	106.69715890009	0.0999134000157937
146158	100	275	stimuli\plant\grass\plant_grass10.jpg            	1	4	1	plant_grass10.jpg    	plant    	6	grass     	17	grass10     	179	alive    	1	still	0	natural 	1	n	0	0    	 	0.0	0	106.747219100012	106.847126799985	0.0999076999723911
146308	100	276	stimuli\animals\dog\animal_dog01.jpg             	1	4	1	animal_dog01.jpg     	animals  	0	dog       	11	dog01       	110	alive    	1	moves	1	natural 	1	n	0	0    	 	0.0	0	106.89721610001301	106.99712710000999	0.0999109999975189
146458	100	277	stimuli\nonmovNat\shell\nmn_shell08.jpg          	1	4	1	nmn_shell08.jpg      	nonmovNat	5	shell     	32	shell08     	327	not_alive	0	still	0	natural 	1	n	0	0    	 	0.0	0	107.047213900019	107.147130400059	0.0999165000393986
146608	100	278	stimuli\animals\dog\animal_dog10.jpg             	1	4	1	animal_dog10.jpg     	animals  	0	dog       	11	dog10       	119	alive    	1	moves	1	natural 	1	n	0	0    	 	0.0	0	107.19721030001499	107.297153200023	0.0999429000075906
146759	100	279	stimuli\animals\dolphin\animal_dolphin04.jpg     	1	4	1	animal_dolphin04.jpg 	animals  	0	dolphin   	12	dolphin04   	123	alive    	1	moves	1	natural 	1	n	0	0    	 	0.0	0	107.34727939998301	107.44715240004	0.0998730000574141
146909	100	280	stimuli\movArt\helicopter\ma_helicopter10.jpg    	1	4	1	ma_helicopter10.jpg  	movArt   	2	helicopter	19	helicopter10	199	not_alive	0	moves	1	artefact	0	n	0	0    	 	0.0	0	107.49730230006399	107.597108000075	0.09980570001062
147058	100	281	stimuli\animals\eagle\animal_eagle03.jpg         	1	4	1	animal_eagle03.jpg   	animals  	0	eagle     	13	eagle03     	132	alive    	1	moves	1	natural 	1	n	0	0    	 	0.0	0	107.647213699995	107.747124099988	0.0999103999929502
147208	100	282	stimuli\plant\flower\plant_flower08.jpg          	1	4	1	plant_flower08.jpg   	plant    	6	flower    	16	flower08    	167	alive    	1	still	0	natural 	1	n	1	0    	 	0.0	0	107.797198400018	107.897118700086	0.0999203000683337
147358	100	283	stimuli\nonmovArt\clothespeg\nma_clothespeg10.jpg	1	4	1	nma_clothespeg10.jpg 	nonmovArt	4	clothespeg	8	clothespeg10	89	not_alive	0	still	0	artefact	0	n	0	0    	 	0.0	0	107.94720819999901	108.047103499994	0.0998952999943867
147508	100	284	stimuli\animals2\bee\animal_bee09.jpg            	1	4	1	animal_bee09.jpg     	animals2 	1	bee       	0	bee09       	8	alive    	1	moves	1	natural 	1	n	0	1    	f	0.39197240001522	1	108.097194000031	108.197113400092	0.0999194000614807
147658	100	285	stimuli\movNat\fire\mn_fire04.jpg                	1	4	1	mn_fire04.jpg        	movNat   	3	fire      	15	fire04      	153	not_alive	0	moves	1	natural 	1	n	0	0    	 	0.0	0	108.24720940005501	108.347110700095	0.0999013000400736
147808	100	286	stimuli\animals\cat\animal_cat10.jpg             	1	4	1	animal_cat10.jpg     	animals  	0	cat       	6	cat10       	69	alive    	1	moves	1	natural 	1	n	0	0    	 	0.0	0	108.397189800045	108.49709730001601	0.0999074999708682
147958	100	287	stimuli\animals2\whale\animal_whale04.jpg        	1	4	1	animal_whale04.jpg   	animals2 	1	whale     	39	whale04     	393	alive    	1	moves	1	natural 	1	n	0	0    	 	0.0	0	108.54722110007401	108.647108300007	0.0998871999327093
148108	100	288	stimuli\animals\eagle\animal_eagle09.jpg         	1	4	1	animal_eagle09.jpg   	animals  	0	eagle     	13	eagle09     	138	alive    	1	moves	1	natural 	1	n	0	0    	 	0.0	0	108.697210100014	108.797115800087	0.0999057000735774
148258	100	289	stimuli\animals2\tiger\animal_tiger10.jpg        	1	4	1	animal_tiger10.jpg   	animals2 	1	tiger     	33	tiger10     	339	alive    	1	moves	1	natural 	1	n	0	0    	 	0.0	0	108.847211300046	108.94711080007299	0.0998995000263676
148408	100	290	stimuli\plant\flower\plant_flower05.jpg          	1	4	1	plant_flower05.jpg   	plant    	6	flower    	16	flower05    	164	alive    	1	still	0	natural 	1	n	0	0    	 	0.0	0	108.99719780008301	109.09716160001699	0.0999637999339029
148559	100	291	stimuli\animals2\lemur\animal_lemur01.jpg        	1	4	1	animal_lemur01.jpg   	animals2 	1	lemur     	23	lemur01     	230	alive    	1	moves	1	natural 	1	n	0	0    	 	0.0	0	109.14729430002599	109.247195500066	0.0999012000393122
148709	100	292	stimuli\movArt\bus\ma_bus01.jpg                  	1	4	1	ma_bus01.jpg         	movArt   	2	bus       	3	bus01       	30	not_alive	0	moves	1	artefact	0	n	0	0    	 	0.0	0	109.297355600051	109.39711270004	0.0997570999898016
148858	100	293	stimuli\animals\cat\animal_cat04.jpg             	1	4	1	animal_cat04.jpg     	animals  	0	cat       	6	cat04       	63	alive    	1	moves	1	natural 	1	n	0	0    	 	0.0	0	109.447178900009	109.547102499986	0.0999235999770462
149008	100	294	stimuli\nonmovArt\lock\nma_lock08.jpg            	1	4	1	nma_lock08.jpg       	nonmovArt	4	lock      	24	lock08      	247	not_alive	0	still	0	artefact	0	n	0	0    	 	0.0	0	109.597186100087	109.69709020003201	0.0999040999449789
149158	100	295	stimuli\nonmovNat\crystal\nmn_crystal06.jpg      	1	4	1	nmn_crystal06.jpg    	nonmovNat	5	crystal   	10	crystal06   	105	not_alive	0	still	0	natural 	1	n	0	0    	 	0.0	0	109.74719530006399	109.84709320007799	0.0998979000141844
149308	100	296	stimuli\movArt\boat\ma_boat01.jpg                	1	4	1	ma_boat01.jpg        	movArt   	2	boat      	2	boat01      	20	not_alive	0	moves	1	artefact	0	n	0	0    	 	0.0	0	109.89718520001	109.997094799997	0.0999095999868586
149458	100	297	stimuli\nonmovNat\crystal\nmn_crystal02.jpg      	1	4	1	nmn_crystal02.jpg    	nonmovNat	5	crystal   	10	crystal02   	101	not_alive	0	still	0	natural 	1	n	0	0    	 	0.0	0	110.04716810001999	110.14707980002301	0.0999117000028491
149608	100	298	stimuli\plant2\moss\plant_moss08.jpg             	1	4	1	plant_moss08.jpg     	plant2   	7	moss      	25	moss08      	257	alive    	1	still	0	natural 	1	n	0	0    	 	0.0	0	110.197097600088	110.296973100048	0.09987549996003502
149758	100	299	stimuli\nonmovNat\cliff\nmn_cliff02.jpg          	1	4	1	nmn_cliff02.jpg      	nonmovNat	5	cliff     	7	cliff02     	71	not_alive	0	still	0	natural 	1	n	0	0    	 	0.0	0	110.34718660009099	110.44710580003401	0.0999191999435424
149908	100	300	stimuli\movNat\river\mn_river08.jpg              	1	4	1	mn_river08.jpg       	movNat   	3	river     	29	river08     	297	not_alive	0	moves	1	natural 	1	n	0	0    	 	0.0	0	110.49717630003599	110.59711510001199	0.0999387999763712
150058	100	301	stimuli\animals\horse\animal_horse08.jpg         	1	4	1	animal_horse08.jpg   	animals  	0	horse     	20	horse08     	207	alive    	1	moves	1	natural 	1	n	1	0    	 	0.0	0	110.647167799994	110.747112800018	0.09994500002358099
150208	100	302	stimuli\animals2\whale\animal_whale10.jpg        	1	4	1	animal_whale10.jpg   	animals2 	1	whale     	39	whale10     	399	alive    	1	moves	1	natural 	1	n	0	0    	 	0.0	0	110.797199700028	110.897071600077	0.0998719000490382
150359	100	303	stimuli\plant2\palmtree\plant_palmtree04.jpg     	1	4	1	plant_palmtree04.jpg 	plant2   	7	palmtree  	27	palmtree04  	273	alive    	1	still	0	natural 	1	n	0	1    	f	0.392055700067431	1	110.947251600097	111.047283800086	0.10003219998907302
150509	100	304	stimuli\plant2\moss\plant_moss09.jpg             	1	4	1	plant_moss09.jpg     	plant2   	7	moss      	25	moss09      	258	alive    	1	still	0	natural 	1	n	0	0    	 	0.0	0	111.09732830000601	111.197103800019	0.09977550001349302
150658	100	305	stimuli\nonmovNat\shell\nmn_shell06.jpg          	1	4	1	nmn_shell06.jpg      	nonmovNat	5	shell     	32	shell06     	325	not_alive	0	still	0	natural 	1	n	1	0    	 	0.0	0	111.24717580003201	111.347086200025	0.0999103999929502
150808	100	306	stimuli\plant\grass\plant_grass04.jpg            	1	4	1	plant_grass04.jpg    	plant    	6	grass     	17	grass04     	173	alive    	1	still	0	natural 	1	n	0	0    	 	0.0	0	111.397207700065	111.497107600095	0.0998999000294134
150958	100	307	stimuli\plant\tree\plant_tree08.jpg              	1	4	1	plant_tree08.jpg     	plant    	6	tree      	35	tree08      	357	alive    	1	still	0	natural 	1	n	0	0    	 	0.0	0	111.54716090008199	111.647094400018	0.0999334999360144
151108	100	308	stimuli\animals2\pigeon\animal_pigeon07.jpg      	1	4	1	animal_pigeon07.jpg  	animals2 	1	pigeon    	28	pigeon07    	286	alive    	1	moves	1	natural 	1	n	0	0    	 	0.0	0	111.697198900045	111.797086799983	0.0998878999380394
151258	100	309	stimuli\animals2\tiger\animal_tiger07.jpg        	1	4	1	animal_tiger07.jpg   	animals2 	1	tiger     	33	tiger07     	336	alive    	1	moves	1	natural 	1	n	0	0    	 	0.0	0	111.847201000084	111.947071200004	0.0998701999196782
151408	100	310	stimuli\nonmovNat\crystal\nmn_crystal02.jpg      	1	4	1	nmn_crystal02.jpg    	nonmovNat	5	crystal   	10	crystal02   	101	not_alive	0	still	0	natural 	1	n	0	0    	 	0.0	0	111.997194700059	112.097064300091	0.0998696000315249
151558	100	311	stimuli\plant\flower\plant_flower08.jpg          	1	4	1	plant_flower08.jpg   	plant    	6	flower    	16	flower08    	167	alive    	1	still	0	natural 	1	n	0	0    	 	0.0	0	112.147186900023	112.24706590001001	0.0998789999866858
151708	100	312	stimuli\plant\vine\plant_vine07.jpg              	1	4	1	plant_vine07.jpg     	plant    	6	vine      	36	vine07      	366	alive    	1	still	0	natural 	1	n	0	0    	 	0.0	0	112.297153400024	112.397063700017	0.0999102999921888
151858	100	313	stimuli\movArt\boat\ma_boat02.jpg                	1	4	1	ma_boat02.jpg        	movArt   	2	boat      	2	boat02      	21	not_alive	0	moves	1	artefact	0	n	0	0    	 	0.0	0	112.447145499988	112.547093800036	0.0999483000487089
152008	100	314	stimuli\movArt\train\ma_train06.jpg              	1	4	1	ma_train06.jpg       	movArt   	2	train     	34	train06     	345	not_alive	0	moves	1	artefact	0	n	0	0    	 	0.0	0	112.597158699995	112.69707130000499	0.0999126000097021
152159	100	315	stimuli\movNat\waterfall\mn_waterfall09.jpg      	1	4	1	mn_waterfall09.jpg   	movNat   	3	waterfall 	37	waterfall09 	378	not_alive	0	moves	1	natural 	1	n	0	0    	 	0.0	0	112.747284900048	112.84719070000601	0.0999057999579236
152309	100	316	stimuli\nonmovArt\clothespeg\nma_clothespeg03.jpg	1	4	1	nma_clothespeg03.jpg 	nonmovArt	4	clothespeg	8	clothespeg03	82	not_alive	0	still	0	artefact	0	n	0	0    	 	0.0	0	112.897273399984	112.997108999989	0.0998356000054627
152458	100	317	stimuli\animals\eagle\animal_eagle09.jpg         	1	4	1	animal_eagle09.jpg   	animals  	0	eagle     	13	eagle09     	138	alive    	1	moves	1	natural 	1	n	0	0    	 	0.0	0	113.047158400062	113.14706580003299	0.0999073999701067
152608	100	318	stimuli\animals\cat\animal_cat09.jpg             	1	4	1	animal_cat09.jpg     	animals  	0	cat       	6	cat09       	68	alive    	1	moves	1	natural 	1	n	0	0    	 	0.0	0	113.197179200011	113.297084900085	0.0999057000735774
152758	100	319	stimuli\movArt\train\ma_train01.jpg              	1	4	1	ma_train01.jpg       	movArt   	2	train     	34	train01     	340	not_alive	0	moves	1	artefact	0	n	0	0    	 	0.0	0	113.347141899983	113.447067900095	0.0999260001117363
164608	100	320	stimuli\plant\vine\plant_vine04.jpg              	1	5	1	plant_vine04.jpg     	plant    	6	vine      	36	vine04      	363	alive    	1	still	0	natural 	1	n	0	0    	 	0.0	0	125.196173300035	125.296153500094	0.0999802000587806
164758	100	321	stimuli\nonmovNat\cliff\nmn_cliff09.jpg          	1	5	1	nmn_cliff09.jpg      	nonmovNat	5	cliff     	7	cliff09     	78	not_alive	0	still	0	natural 	1	n	0	0    	 	0.0	0	125.346167800017	125.44615720002899	0.0999894000124186
164908	100	322	stimuli\nonmovArt\lock\nma_lock07.jpg            	1	5	1	nma_lock07.jpg       	nonmovArt	4	lock      	24	lock07      	246	not_alive	0	still	0	artefact	0	n	0	0    	 	0.0	0	125.496166200028	125.596154400031	0.0999882000032812
165058	100	323	stimuli\plant2\fern\plant_fern09.jpg             	1	5	1	plant_fern09.jpg     	plant2   	7	fern      	14	fern09      	148	alive    	1	still	0	natural 	1	n	0	0    	 	0.0	0	125.646162300021	125.746157400077	0.0999951000558212
165208	100	324	stimuli\movArt\car\ma_car01.jpg                  	1	5	1	ma_car01.jpg         	movArt   	2	car       	5	car01       	50	not_alive	0	moves	1	artefact	0	n	0	0    	 	0.0	0	125.79616170004	125.896156500094	0.0999948000535368
165358	100	325	stimuli\animals2\bee\animal_bee09.jpg            	1	5	1	animal_bee09.jpg     	animals2 	1	bee       	0	bee09       	8	alive    	1	moves	1	natural 	1	n	0	0    	 	0.0	0	125.946168199996	126.04615140007799	0.09998320008162402
165508	100	326	stimuli\movArt\car\ma_car06.jpg                  	1	5	1	ma_car06.jpg         	movArt   	2	car       	5	car06       	55	not_alive	0	moves	1	artefact	0	n	0	0    	 	0.0	0	126.096158500062	126.196147700073	0.0999892000108957
165658	100	327	stimuli\animals\dolphin\animal_dolphin09.jpg     	1	5	1	animal_dolphin09.jpg 	animals  	0	dolphin   	12	dolphin09   	128	alive    	1	moves	1	natural 	1	n	0	0    	 	0.0	0	126.246157600079	126.346147400094	0.0999898000154644
165808	100	328	stimuli\movArt\helicopter\ma_helicopter01.jpg    	1	5	1	ma_helicopter01.jpg  	movArt   	2	helicopter	19	helicopter01	190	not_alive	0	moves	1	artefact	0	n	0	0    	 	0.0	0	126.39615470008002	126.496149200015	0.0999944999348372
165958	100	329	stimuli\nonmovNat\sand\nmn_sand04.jpg            	1	5	1	nmn_sand04.jpg       	nonmovNat	5	sand      	31	sand04      	313	not_alive	0	still	0	natural 	1	n	0	0    	 	0.0	0	126.546155399992	126.64614070008999	0.0999853000976145
166108	100	330	stimuli\plant\cactus\plant_cactus01.jpg          	1	5	1	plant_cactus01.jpg   	plant    	6	cactus    	4	cactus01    	40	alive    	1	still	0	natural 	1	n	0	0    	 	0.0	0	126.696152399993	126.796143200016	0.0999908000230789
166258	100	331	stimuli\movArt\helicopter\ma_helicopter08.jpg    	1	5	1	ma_helicopter08.jpg  	movArt   	2	helicopter	19	helicopter08	197	not_alive	0	moves	1	artefact	0	n	0	0    	 	0.0	0	126.846149199991	126.946139600012	0.0999904000200331
166408	100	332	stimuli\movNat\waves\mn_waves02.jpg              	1	5	1	mn_waves02.jpg       	movNat   	3	waves     	38	waves02     	381	not_alive	0	moves	1	natural 	1	n	0	0    	 	0.0	0	126.996153000044	127.096140600042	0.0999875999987125
166558	100	333	stimuli\movNat\waves\mn_waves06.jpg              	1	5	1	mn_waves06.jpg       	movNat   	3	waves     	38	waves06     	385	not_alive	0	moves	1	natural 	1	n	0	0    	 	0.0	0	127.14614780002701	127.246137700044	0.0999899000162258
166708	100	334	stimuli\nonmovNat\cliff\nmn_cliff05.jpg          	1	5	1	nmn_cliff05.jpg      	nonmovNat	5	cliff     	7	cliff05     	74	not_alive	0	still	0	natural 	1	n	0	0    	 	0.0	0	127.296146300039	127.39613810007	0.0999918000306934
166858	100	335	stimuli\movNat\hotspring\mn_hotspring08.jpg      	1	5	1	mn_hotspring08.jpg   	movNat   	3	hotspring 	21	hotspring08 	217	not_alive	0	moves	1	natural 	1	n	0	0    	 	0.0	0	127.446141500026	127.54613630008001	0.0999948000535368
167008	100	336	stimuli\animals2\pigeon\animal_pigeon09.jpg      	1	5	1	animal_pigeon09.jpg  	animals2 	1	pigeon    	28	pigeon09    	288	alive    	1	moves	1	natural 	1	n	1	0    	 	0.0	0	127.596143300063	127.696143700043	0.100000399979763
167158	100	337	stimuli\animals2\whale\animal_whale07.jpg        	1	5	1	animal_whale07.jpg   	animals2 	1	whale     	39	whale07     	396	alive    	1	moves	1	natural 	1	n	1	0    	 	0.0	0	127.74616229999799	127.84613140008899	0.099969100090675
167308	100	338	stimuli\animals\dolphin\animal_dolphin07.jpg     	1	5	1	animal_dolphin07.jpg 	animals  	0	dolphin   	12	dolphin07   	126	alive    	1	moves	1	natural 	1	n	0	1    	f	0.24197850003838503	1	127.89613910007799	127.996133500012	0.0999943999340757
167458	100	339	stimuli\animals2\tiger\animal_tiger02.jpg        	1	5	1	animal_tiger02.jpg   	animals2 	1	tiger     	33	tiger02     	331	alive    	1	moves	1	natural 	1	n	0	0    	 	0.0	0	128.046136900084	128.146133600036	0.0999966999515891
167608	100	340	stimuli\movArt\car\ma_car02.jpg                  	1	5	1	ma_car02.jpg         	movArt   	2	car       	5	car02       	51	not_alive	0	moves	1	artefact	0	n	0	0    	 	0.0	0	128.196137999999	128.296129900031	0.0999919000314548
167758	100	341	stimuli\plant2\clover\plant_clover05.jpg         	1	5	1	plant_clover05.jpg   	plant2   	7	clover    	9	clover05    	94	alive    	1	still	0	natural 	1	n	0	0    	 	0.0	0	128.346136800013	128.446120699984	0.0999838999705389
167908	100	342	stimuli\plant\cactus\plant_cactus06.jpg          	1	5	1	plant_cactus06.jpg   	plant    	6	cactus    	4	cactus06    	45	alive    	1	still	0	natural 	1	n	0	0    	 	0.0	0	128.496136700036	128.596127200057	0.0999905000207945
168058	100	343	stimuli\nonmovNat\sand\nmn_sand02.jpg            	1	5	1	nmn_sand02.jpg       	nonmovNat	5	sand      	31	sand02      	311	not_alive	0	still	0	natural 	1	n	0	0    	 	0.0	0	128.646131400019	128.746123800054	0.0999924000352621
168208	100	344	stimuli\plant2\moss\plant_moss06.jpg             	1	5	1	plant_moss06.jpg     	plant2   	7	moss      	25	moss06      	255	alive    	1	still	0	natural 	1	n	0	0    	 	0.0	0	128.796133300057	128.89612270006901	0.0999894000124186
168358	100	345	stimuli\plant\tree\plant_tree07.jpg              	1	5	1	plant_tree07.jpg     	plant    	6	tree      	35	tree07      	356	alive    	1	still	0	natural 	1	n	1	0    	 	0.0	0	128.946129200049	129.046115200035	0.0999859999865293
168508	100	346	stimuli\nonmovNat\rock\nmn_rock08.jpg            	1	5	1	nmn_rock08.jpg       	nonmovNat	5	rock      	30	rock08      	307	not_alive	0	still	0	natural 	1	n	0	0    	 	0.0	0	129.096125300042	129.196120799985	0.0999954999424517
168658	100	347	stimuli\animals2\pigeon\animal_pigeon02.jpg      	1	5	1	animal_pigeon02.jpg  	animals2 	1	pigeon    	28	pigeon02    	281	alive    	1	moves	1	natural 	1	n	0	1    	f	0.309478900046088	1	129.246121700038	129.34611990000099	0.0999981999630108
168808	100	348	stimuli\animals2\lemur\animal_lemur03.jpg        	1	5	1	animal_lemur03.jpg   	animals2 	1	lemur     	23	lemur03     	232	alive    	1	moves	1	natural 	1	n	0	0    	 	0.0	0	129.396124600084	129.496133200009	0.100008599925786
168958	100	349	stimuli\nonmovArt\headphones\nma_headphones06.jpg	1	5	1	nma_headphones06.jpg 	nonmovArt	4	headphones	18	headphones06	185	not_alive	0	still	0	artefact	0	n	0	0    	 	0.0	0	129.5461258	129.646108300076	0.0999825000762939
169108	100	350	stimuli\movArt\bus\ma_bus02.jpg                  	1	5	1	ma_bus02.jpg         	movArt   	2	bus       	3	bus02       	31	not_alive	0	moves	1	artefact	0	n	0	0    	 	0.0	0	129.696124200011	129.796116000041	0.0999918000306934
169258	100	351	stimuli\movNat\waterfall\mn_waterfall10.jpg      	1	5	1	mn_waterfall10.jpg   	movNat   	3	waterfall 	37	waterfall10 	379	not_alive	0	moves	1	natural 	1	n	0	0    	 	0.0	0	129.846115700086	129.946113800048	0.0999980999622494
169408	100	352	stimuli\movArt\boat\ma_boat02.jpg                	1	5	1	ma_boat02.jpg        	movArt   	2	boat      	2	boat02      	21	not_alive	0	moves	1	artefact	0	n	0	0    	 	0.0	0	129.99612050002898	130.096112000057	0.099991500028409
169558	100	353	stimuli\nonmovArt\bench\nma_bench05.jpg          	1	5	1	nma_bench05.jpg      	nonmovArt	4	bench     	1	bench05     	14	not_alive	0	still	0	artefact	0	n	0	0    	 	0.0	0	130.146120000049	130.246076300042	0.0999562999932095
169708	100	354	stimuli\animals2\bee\animal_bee01.jpg            	1	5	1	animal_bee01.jpg     	animals2 	1	bee       	0	bee01       	0	alive    	1	moves	1	natural 	1	n	0	0    	 	0.0	0	130.296082300018	130.396073600044	0.0999913000268861
169858	100	355	stimuli\movNat\river\mn_river05.jpg              	1	5	1	mn_river05.jpg       	movNat   	3	river     	29	river05     	294	not_alive	0	moves	1	natural 	1	n	0	0    	 	0.0	0	130.446087000077	130.54607869998998	0.0999916999135166
170008	100	356	stimuli\plant\grass\plant_grass03.jpg            	1	5	1	plant_grass03.jpg    	plant    	6	grass     	17	grass03     	172	alive    	1	still	0	natural 	1	n	0	0    	 	0.0	0	130.596118799993	130.696103500086	0.0999847000930458
170158	100	357	stimuli\nonmovNat\rock\nmn_rock05.jpg            	1	5	1	nmn_rock05.jpg       	nonmovNat	5	rock      	30	rock05      	304	not_alive	0	still	0	natural 	1	n	0	0    	 	0.0	0	130.746113600093	130.84610770002502	0.0999940999317914
170308	100	358	stimuli\nonmovNat\shell\nmn_shell03.jpg          	1	5	1	nmn_shell03.jpg      	nonmovNat	5	shell     	32	shell03     	322	not_alive	0	still	0	natural 	1	n	0	0    	 	0.0	0	130.896116000018	130.996108200052	0.0999922000337392
170458	100	359	stimuli\plant\cactus\plant_cactus09.jpg          	1	5	1	plant_cactus09.jpg   	plant    	6	cactus    	4	cactus09    	48	alive    	1	still	0	natural 	1	n	0	0    	 	0.0	0	131.046107800095	131.14610250003201	0.0999946999363601
170608	100	360	stimuli\nonmovArt\mug\nma_mug01.jpg              	1	5	1	nma_mug01.jpg        	nonmovArt	4	mug       	26	mug01       	260	not_alive	0	still	0	artefact	0	n	0	0    	 	0.0	0	131.196108500008	131.296100100037	0.0999916000291705
170758	100	361	stimuli\plant\cactus\plant_cactus04.jpg          	1	5	1	plant_cactus04.jpg   	plant    	6	cactus    	4	cactus04    	43	alive    	1	still	0	natural 	1	n	0	0    	 	0.0	0	131.346106200013	131.44609209999902	0.0999858999857679
170908	100	362	stimuli\nonmovArt\clothespeg\nma_clothespeg07.jpg	1	5	1	nma_clothespeg07.jpg 	nonmovArt	4	clothespeg	8	clothespeg07	86	not_alive	0	still	0	artefact	0	n	0	0    	 	0.0	0	131.496105500031	131.596094800043	0.0999893000116571
171058	100	363	stimuli\nonmovNat\sand\nmn_sand10.jpg            	1	5	1	nmn_sand10.jpg       	nonmovNat	5	sand      	31	sand10      	319	not_alive	0	still	0	natural 	1	n	0	0    	 	0.0	0	131.64610100002	131.746096000075	0.0999950000550598
171208	100	364	stimuli\plant2\fern\plant_fern10.jpg             	1	5	1	plant_fern10.jpg     	plant2   	7	fern      	14	fern10      	149	alive    	1	still	0	natural 	1	n	0	0    	 	0.0	0	131.796103600063	131.896091700066	0.0999881000025198
171358	100	365	stimuli\nonmovArt\lock\nma_lock01.jpg            	1	5	1	nma_lock01.jpg       	nonmovArt	4	lock      	24	lock01      	240	not_alive	0	still	0	artefact	0	n	0	0    	 	0.0	0	131.946100000059	132.046084400034	0.0999843999743461
171508	100	366	stimuli\nonmovArt\clothespeg\nma_clothespeg02.jpg	1	5	1	nma_clothespeg02.jpg 	nonmovArt	4	clothespeg	8	clothespeg02	81	not_alive	0	still	0	artefact	0	n	0	0    	 	0.0	0	132.096101300092	132.196091899998	0.0999905999051407
171658	100	367	stimuli\movArt\train\ma_train08.jpg              	1	5	1	ma_train08.jpg       	movArt   	2	train     	34	train08     	347	not_alive	0	moves	1	artefact	0	n	0	0    	 	0.0	0	132.24609530007	132.34609020000798	0.09999489993788302
171808	100	368	stimuli\nonmovNat\sand\nmn_sand08.jpg            	1	5	1	nmn_sand08.jpg       	nonmovNat	5	sand      	31	sand08      	317	not_alive	0	still	0	natural 	1	n	0	0    	 	0.0	0	132.396096699988	132.4960861	0.0999894000124186
171958	100	369	stimuli\movArt\bus\ma_bus07.jpg                  	1	5	1	ma_bus07.jpg         	movArt   	2	bus       	3	bus07       	36	not_alive	0	moves	1	artefact	0	n	1	0    	 	0.0	0	132.546091500088	132.646080300095	0.0999888000078499
172108	100	370	stimuli\animals2\tiger\animal_tiger02.jpg        	1	5	1	animal_tiger02.jpg   	animals2 	1	tiger     	33	tiger02     	331	alive    	1	moves	1	natural 	1	n	0	0    	 	0.0	0	132.69609350001002	132.796084400034	0.0999909000238403
172258	100	371	stimuli\nonmovNat\shell\nmn_shell10.jpg          	1	5	1	nmn_shell10.jpg      	nonmovNat	5	shell     	32	shell10     	329	not_alive	0	still	0	natural 	1	n	0	1    	f	0.3919708000030371	1	132.84608440008	132.946083700052	0.0999992999713868
172408	100	372	stimuli\animals\cat\animal_cat02.jpg             	1	5	1	animal_cat02.jpg     	animals  	0	cat       	6	cat02       	61	alive    	1	moves	1	natural 	1	n	0	0    	 	0.0	0	132.996063200058	133.096086200094	0.100023000035435
172558	100	373	stimuli\movNat\waterfall\mn_waterfall06.jpg      	1	5	1	mn_waterfall06.jpg   	movNat   	3	waterfall 	37	waterfall06 	375	not_alive	0	moves	1	natural 	1	n	0	0    	 	0.0	0	133.146093400079	133.2460861	0.0999926999211311
172708	100	374	stimuli\animals\dog\animal_dog05.jpg             	1	5	1	animal_dog05.jpg     	animals  	0	dog       	11	dog05       	114	alive    	1	moves	1	natural 	1	n	0	0    	 	0.0	0	133.296090700082	133.39608179999	0.0999910999089479
172858	100	375	stimuli\nonmovArt\bench\nma_bench09.jpg          	1	5	1	nma_bench09.jpg      	nonmovArt	4	bench     	1	bench09     	18	not_alive	0	still	0	artefact	0	n	0	0    	 	0.0	0	133.446072800085	133.54608260002	0.10000979993492401
173008	100	376	stimuli\nonmovNat\cliff\nmn_cliff07.jpg          	1	5	1	nmn_cliff07.jpg      	nonmovNat	5	cliff     	7	cliff07     	76	not_alive	0	still	0	natural 	1	n	0	0    	 	0.0	0	133.596089700004	133.696079000016	0.0999893000116571
173158	100	377	stimuli\movArt\boat\ma_boat08.jpg                	1	5	1	ma_boat08.jpg        	movArt   	2	boat      	2	boat08      	27	not_alive	0	moves	1	artefact	0	n	0	0    	 	0.0	0	133.746090700035	133.84608180006	0.0999911000253632
173308	100	378	stimuli\movArt\bus\ma_bus02.jpg                  	1	5	1	ma_bus02.jpg         	movArt   	2	bus       	3	bus02       	31	not_alive	0	moves	1	artefact	0	n	0	0    	 	0.0	0	133.896085800021	133.996068300097	0.0999825000762939
173458	100	379	stimuli\movArt\car\ma_car07.jpg                  	1	5	1	ma_car07.jpg         	movArt   	2	car       	5	car07       	56	not_alive	0	moves	1	artefact	0	n	0	0    	 	0.0	0	134.04608490003702	134.146076100063	0.0999912000261247
173608	100	380	stimuli\nonmovArt\mug\nma_mug08.jpg              	1	5	1	nma_mug08.jpg        	nonmovArt	4	mug       	26	mug08       	267	not_alive	0	still	0	artefact	0	n	0	0    	 	0.0	0	134.196079000016	134.29607440007402	0.0999954000581056
173758	100	381	stimuli\nonmovNat\shell\nmn_shell07.jpg          	1	5	1	nmn_shell07.jpg      	nonmovNat	5	shell     	32	shell07     	326	not_alive	0	still	0	natural 	1	n	0	0    	 	0.0	0	134.346070900094	134.44607350009	0.100002599996515
173908	100	382	stimuli\animals\eagle\animal_eagle10.jpg         	1	5	1	animal_eagle10.jpg   	animals  	0	eagle     	13	eagle10     	139	alive    	1	moves	1	natural 	1	n	0	0    	 	0.0	0	134.496082400088	134.59607040008999	0.0999880000017583
174058	100	383	stimuli\plant\vine\plant_vine07.jpg              	1	5	1	plant_vine07.jpg     	plant    	6	vine      	36	vine07      	366	alive    	1	still	0	natural 	1	n	0	0    	 	0.0	0	134.646079000086	134.746065000072	0.0999859999865293
174208	100	384	stimuli\animals\horse\animal_horse04.jpg         	1	5	1	animal_horse04.jpg   	animals  	0	horse     	20	horse04     	203	alive    	1	moves	1	natural 	1	n	0	0    	 	0.0	0	134.796082800021	134.896068000002	0.0999851999804377
174358	100	385	stimuli\animals2\pigeon\animal_pigeon07.jpg      	1	5	1	animal_pigeon07.jpg  	animals2 	1	pigeon    	28	pigeon07    	286	alive    	1	moves	1	natural 	1	n	0	0    	 	0.0	0	134.946077100001	135.046066500014	0.0999894000124186
174508	100	386	stimuli\animals2\whale\animal_whale02.jpg        	1	5	1	animal_whale02.jpg   	animals2 	1	whale     	39	whale02     	391	alive    	1	moves	1	natural 	1	n	0	0    	 	0.0	0	135.096074900008	135.19606580003202	0.0999909000238403
174658	100	387	stimuli\animals\eagle\animal_eagle07.jpg         	1	5	1	animal_eagle07.jpg   	animals  	0	eagle     	13	eagle07     	136	alive    	1	moves	1	natural 	1	n	0	0    	 	0.0	0	135.246075100033	135.346063000034	0.0999879000009968
174808	100	388	stimuli\nonmovNat\crystal\nmn_crystal04.jpg      	1	5	1	nmn_crystal04.jpg    	nonmovNat	5	crystal   	10	crystal04   	103	not_alive	0	still	0	natural 	1	n	0	0    	 	0.0	0	135.396073100041	135.49605750001498	0.0999843999743461
174958	100	389	stimuli\plant2\fern\plant_fern03.jpg             	1	5	1	plant_fern03.jpg     	plant2   	7	fern      	14	fern03      	142	alive    	1	still	0	natural 	1	n	0	0    	 	0.0	0	135.546064599999	135.64604870008802	0.0999841000884771
175108	100	390	stimuli\animals2\pigeon\animal_pigeon04.jpg      	1	5	1	animal_pigeon04.jpg  	animals2 	1	pigeon    	28	pigeon04    	283	alive    	1	moves	1	natural 	1	n	0	0    	 	0.0	0	135.696066300035	135.796098800027	0.100032499991357
175258	100	391	stimuli\movArt\helicopter\ma_helicopter03.jpg    	1	5	1	ma_helicopter03.jpg  	movArt   	2	helicopter	19	helicopter03	192	not_alive	0	moves	1	artefact	0	n	0	0    	 	0.0	0	135.846066900063	135.946059000096	0.0999921000329777
175408	100	392	stimuli\movNat\hotspring\mn_hotspring04.jpg      	1	5	1	mn_hotspring04.jpg   	movNat   	3	hotspring 	21	hotspring04 	213	not_alive	0	moves	1	natural 	1	n	0	0    	 	0.0	0	135.996065000072	136.096881200094	0.100816200021654
175558	100	393	stimuli\movArt\helicopter\ma_helicopter03.jpg    	1	5	1	ma_helicopter03.jpg  	movArt   	2	helicopter	19	helicopter03	192	not_alive	0	moves	1	artefact	0	n	0	0    	 	0.0	0	136.146951100091	136.246860900079	0.0999097999883815
175708	100	394	stimuli\movNat\fire\mn_fire10.jpg                	1	5	1	mn_fire10.jpg        	movNat   	3	fire      	15	fire10      	159	not_alive	0	moves	1	natural 	1	n	0	0    	 	0.0	0	136.296951700002	136.396862299996	0.0999105999944731
175858	100	395	stimuli\animals2\bee\animal_bee05.jpg            	1	5	1	animal_bee05.jpg     	animals2 	1	bee       	0	bee05       	4	alive    	1	moves	1	natural 	1	n	0	0    	 	0.0	0	136.446924800053	136.546855900087	0.0999311000341549
176008	100	396	stimuli\plant2\clover\plant_clover06.jpg         	1	5	1	plant_clover06.jpg   	plant2   	7	clover    	9	clover06    	95	alive    	1	still	0	natural 	1	n	0	0    	 	0.0	0	136.596952700056	136.696858200012	0.0999054999556392
176158	100	397	stimuli\animals\dog\animal_dog03.jpg             	1	5	1	animal_dog03.jpg     	animals  	0	dog       	11	dog03       	112	alive    	1	moves	1	natural 	1	n	0	0    	 	0.0	0	136.74692240008198	136.84686010004998	0.0999376999679952
176308	100	398	stimuli\plant2\clover\plant_clover03.jpg         	1	5	1	plant_clover03.jpg   	plant2   	7	clover    	9	clover03    	92	alive    	1	still	0	natural 	1	n	0	0    	 	0.0	0	136.896911800024	136.996855400037	0.0999436000129208
176458	100	399	stimuli\plant2\moss\plant_moss10.jpg             	1	5	1	plant_moss10.jpg     	plant2   	7	moss      	25	moss10      	259	alive    	1	still	0	natural 	1	n	0	0    	 	0.0	0	137.04693900002198	137.146846999996	0.0999079999746754
187992	100	400	stimuli\movArt\helicopter\ma_helicopter05.jpg    	1	6	1	ma_helicopter05.jpg  	movArt   	2	helicopter	19	helicopter05	194	not_alive	0	moves	1	artefact	0	n	0	0    	 	0.0	0	148.580234199995	148.680057700025	0.0998235000297427
188142	100	401	stimuli\animals\eagle\animal_eagle06.jpg         	1	6	1	animal_eagle06.jpg   	animals  	0	eagle     	13	eagle06     	135	alive    	1	moves	1	natural 	1	n	0	0    	 	0.0	0	148.730143500026	148.830059700063	0.0999162000371143
188292	100	402	stimuli\movNat\river\mn_river07.jpg              	1	6	1	mn_river07.jpg       	movNat   	3	river     	29	river07     	296	not_alive	0	moves	1	natural 	1	n	0	0    	 	0.0	0	148.88012960006	148.980042700074	0.0999131000135094
188442	100	403	stimuli\animals2\lemur\animal_lemur03.jpg        	1	6	1	animal_lemur03.jpg   	animals2 	1	lemur     	23	lemur03     	232	alive    	1	moves	1	natural 	1	n	0	0    	 	0.0	0	149.030124500045	149.130121900002	0.0999973999569192
188592	100	404	stimuli\animals\dolphin\animal_dolphin04.jpg     	1	6	1	animal_dolphin04.jpg 	animals  	0	dolphin   	12	dolphin04   	123	alive    	1	moves	1	natural 	1	n	0	0    	 	0.0	0	149.18026240007	149.280149500002	0.0998870999319478
188742	100	405	stimuli\animals2\whale\animal_whale10.jpg        	1	6	1	animal_whale10.jpg   	animals2 	1	whale     	39	whale10     	399	alive    	1	moves	1	natural 	1	n	0	0    	 	0.0	0	149.330159400008	149.430041300016	0.0998819000087678
188892	100	406	stimuli\animals2\lemur\animal_lemur10.jpg        	1	6	1	animal_lemur10.jpg   	animals2 	1	lemur     	23	lemur10     	239	alive    	1	moves	1	natural 	1	n	0	0    	 	0.0	0	149.48015180009	149.580034099985	0.0998822998953983
189042	100	407	stimuli\plant2\palmtree\plant_palmtree05.jpg     	1	6	1	plant_palmtree05.jpg 	plant2   	7	palmtree  	27	palmtree05  	274	alive    	1	still	0	natural 	1	n	0	0    	 	0.0	0	149.630309500033	149.730036500026	0.09972699999343598
189192	100	408	stimuli\movNat\waterfall\mn_waterfall05.jpg      	1	6	1	mn_waterfall05.jpg   	movNat   	3	waterfall 	37	waterfall05 	374	not_alive	0	moves	1	natural 	1	n	0	0    	 	0.0	0	149.780128100072	149.88002929999502	0.0999011999228969
189342	100	409	stimuli\movArt\boat\ma_boat04.jpg                	1	6	1	ma_boat04.jpg        	movArt   	2	boat      	2	boat04      	23	not_alive	0	moves	1	artefact	0	n	0	0    	 	0.0	0	149.93013240001198	150.030044500018	0.0999121000058949
189492	100	410	stimuli\movNat\hotspring\mn_hotspring06.jpg      	1	6	1	mn_hotspring06.jpg   	movNat   	3	hotspring 	21	hotspring06 	215	not_alive	0	moves	1	natural 	1	n	0	0    	 	0.0	0	150.080135200056	150.180046200054	0.0999109999975189
189642	100	411	stimuli\plant2\palmtree\plant_palmtree07.jpg     	1	6	1	plant_palmtree07.jpg 	plant2   	7	palmtree  	27	palmtree07  	276	alive    	1	still	0	natural 	1	n	0	0    	 	0.0	0	150.230151500087	150.330040900037	0.0998893999494612
189792	100	412	stimuli\nonmovArt\mug\nma_mug03.jpg              	1	6	1	nma_mug03.jpg        	nonmovArt	4	mug       	26	mug03       	262	not_alive	0	still	0	artefact	0	n	0	0    	 	0.0	0	150.380129400059	150.48003219999399	0.0999027999350801
189942	100	413	stimuli\nonmovNat\rock\nmn_rock10.jpg            	1	6	1	nmn_rock10.jpg       	nonmovNat	5	rock      	30	rock10      	309	not_alive	0	still	0	natural 	1	n	0	0    	 	0.0	0	150.530114900088	150.630024300073	0.0999093999853357
190092	100	414	stimuli\nonmovNat\crystal\nmn_crystal08.jpg      	1	6	1	nmn_crystal08.jpg    	nonmovNat	5	crystal   	10	crystal08   	107	not_alive	0	still	0	natural 	1	n	0	0    	 	0.0	0	150.680123300059	150.78003730007902	0.0999140000203624
190242	100	415	stimuli\movArt\bus\ma_bus10.jpg                  	1	6	1	ma_bus10.jpg         	movArt   	2	bus       	3	bus10       	39	not_alive	0	moves	1	artefact	0	n	0	0    	 	0.0	0	150.830123900087	150.93010440003098	0.0999804999446496
190392	100	416	stimuli\animals2\tiger\animal_tiger01.jpg        	1	6	1	animal_tiger01.jpg   	animals2 	1	tiger     	33	tiger01     	330	alive    	1	moves	1	natural 	1	n	0	0    	 	0.0	0	150.980233800015	151.080112800002	0.0998789999866858
190542	100	417	stimuli\plant\flower\plant_flower04.jpg          	1	6	1	plant_flower04.jpg   	plant    	6	flower    	16	flower04    	163	alive    	1	still	0	natural 	1	n	0	0    	 	0.0	0	151.130120599992	151.23003470001302	0.0999141000211238
