onset	duration	eventnumber	stimulus_file	blockno	trialno	is_faststream	stim	stim_category	category_number	exemplar	exemplar_number	image_name	image_number	aliveness	aliveness_bin	movement	movement_bin	naturalness	naturalness_bin	response_hand_moves	istarget	response	keypressed	rt	correct	time_stimon	time_stimoff	stimdur
63951	100	0	stimuli\plant2\moss\plant_moss05.jpg             	1	1	1	plant_moss05.jpg     	plant2   	7	moss      	25	moss05      	254	alive    	1	still	0	natural 	1	n	0	0    	 	0.0	0	77.7422213000246	77.84220080031079	0.0999795002862811
64101	100	1	stimuli\plant2\fern\plant_fern02.jpg             	1	1	1	plant_fern02.jpg     	plant2   	7	fern      	14	fern02      	141	alive    	1	still	0	natural 	1	n	0	0    	 	0.0	0	77.8921917001717	77.99220099998641	0.10000929981470098
64251	100	2	stimuli\animals2\bee\animal_bee07.jpg            	1	1	1	animal_bee07.jpg     	animals2 	1	bee       	0	bee07       	6	alive    	1	moves	1	natural 	1	n	0	0    	 	0.0	0	78.0422173002735	78.1422037999146	0.0999864996410906
64401	100	3	stimuli\animals\dog\animal_dog10.jpg             	1	1	1	animal_dog10.jpg     	animals  	0	dog       	11	dog10       	119	alive    	1	moves	1	natural 	1	n	0	0    	 	0.0	0	78.1922079003416	78.2922042002901	0.0999962999485433
64551	100	4	stimuli\nonmovNat\cliff\nmn_cliff08.jpg          	1	1	1	nmn_cliff08.jpg      	nonmovNat	5	cliff     	7	cliff08     	77	not_alive	0	still	0	natural 	1	n	0	0    	 	0.0	0	78.3422052999958	78.4421999999322	0.0999946999363601
64701	100	5	stimuli\nonmovArt\bench\nma_bench03.jpg          	1	1	1	nma_bench03.jpg      	nonmovArt	4	bench     	1	bench03     	12	not_alive	0	still	0	artefact	0	n	0	0    	 	0.0	0	78.4922104002908	78.59219310013579	0.0999826998449862
64851	100	6	stimuli\nonmovArt\bench\nma_bench05.jpg          	1	1	1	nma_bench05.jpg      	nonmovArt	4	bench     	1	bench05     	14	not_alive	0	still	0	artefact	0	n	0	0    	 	0.0	0	78.6422092001885	78.74219299992549	0.0999837997369468
65001	100	7	stimuli\movNat\hotspring\mn_hotspring06.jpg      	1	1	1	mn_hotspring06.jpg   	movNat   	3	hotspring 	21	hotspring06 	215	not_alive	0	moves	1	natural 	1	n	0	0    	 	0.0	0	78.7922058003023	78.8921909001656	0.0999850998632609
65151	100	8	stimuli\plant2\lemontree\plant_lemontree02.jpg   	1	1	1	plant_lemontree02.jpg	plant2   	7	lemontree 	22	lemontree02 	221	alive    	1	still	0	natural 	1	n	0	0    	 	0.0	0	78.94253040011971	79.0421919999644	0.0996615998446941
65301	100	9	stimuli\nonmovNat\rock\nmn_rock04.jpg            	1	1	1	nmn_rock04.jpg       	nonmovNat	5	rock      	30	rock04      	303	not_alive	0	still	0	natural 	1	n	0	0    	 	0.0	0	79.0922010000795	79.1921863001771	0.0999853000976145
65451	100	10	stimuli\movNat\waves\mn_waves01.jpg              	1	1	1	mn_waves01.jpg       	movNat   	3	waves     	38	waves01     	380	not_alive	0	moves	1	natural 	1	n	1	0    	 	0.0	0	79.2421961002983	79.3421889999881	0.0999928996898234
65601	100	11	stimuli\animals\cat\animal_cat01.jpg             	1	1	1	animal_cat01.jpg     	animals  	0	cat       	6	cat01       	60	alive    	1	moves	1	natural 	1	n	0	0    	 	0.0	0	79.3921958999708	79.49218170018871	0.0999858002178371
65751	100	12	stimuli\movArt\bus\ma_bus05.jpg                  	1	1	1	ma_bus05.jpg         	movArt   	2	bus       	3	bus05       	34	not_alive	0	moves	1	artefact	0	n	0	1    	f	0.292144799605012	1	79.5421970002353	79.6421819003299	0.0999849000945687
65901	100	13	stimuli\movArt\train\ma_train04.jpg              	1	1	1	ma_train04.jpg       	movArt   	2	train     	34	train04     	343	not_alive	0	moves	1	artefact	0	n	0	0    	 	0.0	0	79.69219240034	79.7921794001013	0.0999869997613132
66051	100	14	stimuli\movArt\car\ma_car04.jpg                  	1	1	1	ma_car04.jpg         	movArt   	2	car       	5	car04       	53	not_alive	0	moves	1	artefact	0	n	0	0    	 	0.0	0	79.8421917003579	79.9421785003506	0.0999867999926209
66201	100	15	stimuli\movNat\waterfall\mn_waterfall10.jpg      	1	1	1	mn_waterfall10.jpg   	movNat   	3	waterfall 	37	waterfall10 	379	not_alive	0	moves	1	natural 	1	n	0	0    	 	0.0	0	79.9921905002557	80.0921783000231	0.0999877997674048
66351	100	16	stimuli\animals\horse\animal_horse07.jpg         	1	1	1	animal_horse07.jpg   	animals  	0	horse     	20	horse07     	206	alive    	1	moves	1	natural 	1	n	0	0    	 	0.0	0	80.1421896000393	80.24217690015209	0.0999873001128435
66501	100	17	stimuli\animals2\lemur\animal_lemur10.jpg        	1	1	1	animal_lemur10.jpg   	animals2 	1	lemur     	23	lemur10     	239	alive    	1	moves	1	natural 	1	n	0	0    	 	0.0	0	80.29218550026421	80.39217470027509	0.0999892000108957
66651	100	18	stimuli\plant2\clover\plant_clover10.jpg         	1	1	1	plant_clover10.jpg   	plant2   	7	clover    	9	clover10    	99	alive    	1	still	0	natural 	1	n	0	0    	 	0.0	0	80.44218640029429	80.54217249993229	0.0999860996380448
66801	100	19	stimuli\plant2\lemontree\plant_lemontree08.jpg   	1	1	1	plant_lemontree08.jpg	plant2   	7	lemontree 	22	lemontree08 	227	alive    	1	still	0	natural 	1	n	0	0    	 	0.0	0	80.5921807000413	80.69214519998059	0.09996449993923301
66951	100	20	stimuli\plant2\palmtree\plant_palmtree06.jpg     	1	1	1	plant_palmtree06.jpg 	plant2   	7	palmtree  	27	palmtree06  	275	alive    	1	still	0	natural 	1	n	0	0    	 	0.0	0	80.74214680027221	80.8421340002678	0.0999871999956667
67101	100	21	stimuli\nonmovNat\shell\nmn_shell03.jpg          	1	1	1	nmn_shell03.jpg      	nonmovNat	5	shell     	32	shell03     	322	not_alive	0	still	0	natural 	1	n	0	0    	 	0.0	0	80.89215179998429	80.9921412002295	0.0999894002452492
67251	100	22	stimuli\movNat\waves\mn_waves06.jpg              	1	1	1	mn_waves06.jpg       	movNat   	3	waves     	38	waves06     	385	not_alive	0	moves	1	natural 	1	n	0	0    	 	0.0	0	81.0421442002989	81.1421944000758	0.100050199776888
67401	100	23	stimuli\movArt\helicopter\ma_helicopter04.jpg    	1	1	1	ma_helicopter04.jpg  	movArt   	2	helicopter	19	helicopter04	193	not_alive	0	moves	1	artefact	0	n	0	0    	 	0.0	0	81.192217099946	81.2921708002687	0.0999537003226578
67551	100	24	stimuli\plant\cactus\plant_cactus08.jpg          	1	1	1	plant_cactus08.jpg   	plant    	6	cactus    	4	cactus08    	47	alive    	1	still	0	natural 	1	n	0	0    	 	0.0	0	81.3421781002544	81.44216189999129	0.0999837997369468
67701	100	25	stimuli\movArt\helicopter\ma_helicopter08.jpg    	1	1	1	ma_helicopter08.jpg  	movArt   	2	helicopter	19	helicopter08	197	not_alive	0	moves	1	artefact	0	n	0	0    	 	0.0	0	81.49217270035301	81.5921692000702	0.0999964997172355
67851	100	26	stimuli\nonmovArt\headphones\nma_headphones03.jpg	1	1	1	nma_headphones03.jpg 	nonmovArt	4	headphones	18	headphones03	182	not_alive	0	still	0	artefact	0	n	0	0    	 	0.0	0	81.6421762001701	81.7421655999497	0.0999893997795879
68001	100	27	stimuli\nonmovNat\shell\nmn_shell03.jpg          	1	1	1	nmn_shell03.jpg      	nonmovNat	5	shell     	32	shell03     	322	not_alive	0	still	0	natural 	1	n	0	0    	 	0.0	0	81.79217449994759	81.892155200243	0.0999807002954185
68151	100	28	stimuli\plant2\fern\plant_fern07.jpg             	1	1	1	plant_fern07.jpg     	plant2   	7	fern      	14	fern07      	146	alive    	1	still	0	natural 	1	n	0	0    	 	0.0	0	81.9421719000675	82.0421623000875	0.0999904000200331
68301	100	29	stimuli\movNat\waves\mn_waves02.jpg              	1	1	1	mn_waves02.jpg       	movNat   	3	waves     	38	waves02     	381	not_alive	0	moves	1	natural 	1	n	0	0    	 	0.0	0	82.0921641001478	82.1921617002226	0.0999976000748574
68451	100	30	stimuli\movArt\boat\ma_boat03.jpg                	1	1	1	ma_boat03.jpg        	movArt   	2	boat      	2	boat03      	22	not_alive	0	moves	1	artefact	0	n	0	0    	 	0.0	0	82.2421825001948	82.34215900022541	0.099976500030607
68601	100	31	stimuli\movArt\car\ma_car02.jpg                  	1	1	1	ma_car02.jpg         	movArt   	2	car       	5	car02       	51	not_alive	0	moves	1	artefact	0	n	0	0    	 	0.0	0	82.392168099992	82.49215730000292	0.0999892000108957
68751	100	32	stimuli\movNat\fire\mn_fire05.jpg                	1	1	1	mn_fire05.jpg        	movNat   	3	fire      	15	fire05      	154	not_alive	0	moves	1	natural 	1	n	0	0    	 	0.0	0	82.5421680998988	82.64215259999041	0.0999845000915229
68901	100	33	stimuli\nonmovArt\clothespeg\nma_clothespeg07.jpg	1	1	1	nma_clothespeg07.jpg 	nonmovArt	4	clothespeg	8	clothespeg07	86	not_alive	0	still	0	artefact	0	n	0	0    	 	0.0	0	82.692163400352	82.7921536001377	0.0999901997856795
69051	100	34	stimuli\plant\grass\plant_grass09.jpg            	1	1	1	plant_grass09.jpg    	plant    	6	grass     	17	grass09     	178	alive    	1	still	0	natural 	1	n	0	0    	 	0.0	0	82.8421571999788	82.9421713999473	0.10001419996842699
69201	100	35	stimuli\movNat\river\mn_river05.jpg              	1	1	1	mn_river05.jpg       	movNat   	3	river     	29	river05     	294	not_alive	0	moves	1	natural 	1	n	0	0    	 	0.0	0	82.9921822003089	83.0921490001492	0.09996679984033098
69351	100	36	stimuli\plant\cactus\plant_cactus08.jpg          	1	1	1	plant_cactus08.jpg   	plant    	6	cactus    	4	cactus08    	47	alive    	1	still	0	natural 	1	n	0	0    	 	0.0	0	83.1421603001654	83.2421498000622	0.0999894998967647
69501	100	37	stimuli\animals2\pigeon\animal_pigeon09.jpg      	1	1	1	animal_pigeon09.jpg  	animals2 	1	pigeon    	28	pigeon09    	288	alive    	1	moves	1	natural 	1	n	0	0    	 	0.0	0	83.2921575000509	83.392147900071	0.0999904000200331
69651	100	38	stimuli\movArt\car\ma_car07.jpg                  	1	1	1	ma_car07.jpg         	movArt   	2	car       	5	car07       	56	not_alive	0	moves	1	artefact	0	n	0	0    	 	0.0	0	83.44215690018609	83.54214130016041	0.0999843999743461
69801	100	39	stimuli\plant2\clover\plant_clover05.jpg         	1	1	1	plant_clover05.jpg   	plant2   	7	clover    	9	clover05    	94	alive    	1	still	0	natural 	1	n	0	0    	 	0.0	0	83.59215319994841	83.6921441000886	0.0999909001402556
69951	100	40	stimuli\animals\dolphin\animal_dolphin08.jpg     	1	1	1	animal_dolphin08.jpg 	animals  	0	dolphin   	12	dolphin08   	127	alive    	1	moves	1	natural 	1	n	0	0    	 	0.0	0	83.7421530000865	83.84213590016591	0.0999829000793397
70101	100	41	stimuli\plant2\fern\plant_fern10.jpg             	1	1	1	plant_fern10.jpg     	plant2   	7	fern      	14	fern10      	149	alive    	1	still	0	natural 	1	n	0	0    	 	0.0	0	83.89215000020342	83.99213910009709	0.0999890998937189
70251	100	42	stimuli\animals\horse\animal_horse07.jpg         	1	1	1	animal_horse07.jpg   	animals  	0	horse     	20	horse07     	206	alive    	1	moves	1	natural 	1	n	0	0    	 	0.0	0	84.04214989999309	84.14213530020791	0.0999854002147913
70401	100	43	stimuli\nonmovArt\mug\nma_mug08.jpg              	1	1	1	nma_mug08.jpg        	nonmovArt	4	mug       	26	mug08       	267	not_alive	0	still	0	artefact	0	n	0	0    	 	0.0	0	84.1921475999989	84.2921353001148	0.0999877001158893
70551	100	44	stimuli\nonmovArt\mug\nma_mug02.jpg              	1	1	1	nma_mug02.jpg        	nonmovArt	4	mug       	26	mug02       	261	not_alive	0	still	0	artefact	0	n	0	0    	 	0.0	0	84.34214820014309	84.4421354001388	0.0999871999956667
70701	100	45	stimuli\plant\vine\plant_vine07.jpg              	1	1	1	plant_vine07.jpg     	plant    	6	vine      	36	vine07      	366	alive    	1	still	0	natural 	1	n	0	0    	 	0.0	0	84.49213750008491	84.5921324002557	0.0999949001707136
70851	100	46	stimuli\animals2\whale\animal_whale02.jpg        	1	1	1	animal_whale02.jpg   	animals2 	1	whale     	39	whale02     	391	alive    	1	moves	1	natural 	1	n	0	0    	 	0.0	0	84.64214480016379	84.74214590014891	0.100001099985093
71001	100	47	stimuli\animals2\bee\animal_bee02.jpg            	1	1	1	animal_bee02.jpg     	animals2 	1	bee       	0	bee02       	1	alive    	1	moves	1	natural 	1	n	0	0    	 	0.0	0	84.7921500001103	84.8921318002977	0.0999818001873791
71151	100	48	stimuli\animals\horse\animal_horse01.jpg         	1	1	1	animal_horse01.jpg   	animals  	0	horse     	20	horse01     	200	alive    	1	moves	1	natural 	1	n	0	0    	 	0.0	0	84.94214020017529	85.04212810005991	0.0999878998845815
71301	100	49	stimuli\animals\dolphin\animal_dolphin08.jpg     	1	1	1	animal_dolphin08.jpg 	animals  	0	dolphin   	12	dolphin08   	127	alive    	1	moves	1	natural 	1	n	0	0    	 	0.0	0	85.0921362000517	85.1921268999577	0.0999906999059021
71451	100	50	stimuli\nonmovArt\mug\nma_mug08.jpg              	1	1	1	nma_mug08.jpg        	nonmovArt	4	mug       	26	mug08       	267	not_alive	0	still	0	artefact	0	n	0	0    	 	0.0	0	85.24213040014729	85.3421251000837	0.0999946999363601
71601	100	51	stimuli\animals\eagle\animal_eagle09.jpg         	1	1	1	animal_eagle09.jpg   	animals  	0	eagle     	13	eagle09     	138	alive    	1	moves	1	natural 	1	n	0	0    	 	0.0	0	85.3921643001959	85.4921321002767	0.0999678000807762
71751	100	52	stimuli\animals2\tiger\animal_tiger01.jpg        	1	1	1	animal_tiger01.jpg   	animals2 	1	tiger     	33	tiger01     	330	alive    	1	moves	1	natural 	1	n	0	0    	 	0.0	0	85.54212799994271	85.64212100021541	0.0999930002726614
71901	100	53	stimuli\plant2\lemontree\plant_lemontree06.jpg   	1	1	1	plant_lemontree06.jpg	plant2   	7	lemontree 	22	lemontree06 	225	alive    	1	still	0	natural 	1	n	0	0    	 	0.0	0	85.6921326001175	85.792120099999	0.0999874998815357
72051	100	54	stimuli\plant\vine\plant_vine06.jpg              	1	1	1	plant_vine06.jpg     	plant    	6	vine      	36	vine06      	365	alive    	1	still	0	natural 	1	n	0	0    	 	0.0	0	85.8421296002343	85.94211760023609	0.0999880000017583
72201	100	55	stimuli\animals2\pigeon\animal_pigeon01.jpg      	1	1	1	animal_pigeon01.jpg  	animals2 	1	pigeon    	28	pigeon01    	280	alive    	1	moves	1	natural 	1	n	0	0    	 	0.0	0	85.99212750000879	86.09211699990558	0.0999894998967647
72351	100	56	stimuli\plant\grass\plant_grass08.jpg            	1	1	1	plant_grass08.jpg    	plant    	6	grass     	17	grass08     	177	alive    	1	still	0	natural 	1	n	0	0    	 	0.0	0	86.1421223003417	86.2421150999144	0.0999927995726466
72501	100	57	stimuli\nonmovNat\sand\nmn_sand07.jpg            	1	1	1	nmn_sand07.jpg       	nonmovNat	5	sand      	31	sand07      	316	not_alive	0	still	0	natural 	1	n	0	0    	 	0.0	0	86.29211910022421	86.3921190002002	0.0999998999759554
72651	100	58	stimuli\animals2\lemur\animal_lemur09.jpg        	1	1	1	animal_lemur09.jpg   	animals2 	1	lemur     	23	lemur09     	238	alive    	1	moves	1	natural 	1	n	1	0    	 	0.0	0	86.4421248999424	86.5421524001286	0.100027500186116
72801	100	59	stimuli\nonmovArt\headphones\nma_headphones02.jpg	1	1	1	nma_headphones02.jpg 	nonmovArt	4	headphones	18	headphones02	181	not_alive	0	still	0	artefact	0	n	0	0    	 	0.0	0	86.59211610024789	86.69211040018129	0.0999942999333143
72951	100	60	stimuli\animals2\tiger\animal_tiger01.jpg        	1	1	1	animal_tiger01.jpg   	animals2 	1	tiger     	33	tiger01     	330	alive    	1	moves	1	natural 	1	n	0	1    	f	0.391970300115645	1	86.7421210999601	86.8421030999161	0.0999819999560713
73101	100	61	stimuli\animals\cat\animal_cat10.jpg             	1	1	1	animal_cat10.jpg     	animals  	0	cat       	6	cat10       	69	alive    	1	moves	1	natural 	1	n	0	0    	 	0.0	0	86.8921131002717	86.99210799997671	0.0999948997050523
73251	100	62	stimuli\animals2\whale\animal_whale07.jpg        	1	1	1	animal_whale07.jpg   	animals2 	1	whale     	39	whale07     	396	alive    	1	moves	1	natural 	1	n	0	0    	 	0.0	0	87.04210920026529	87.14210620010272	0.0999969998374581
73401	100	63	stimuli\movNat\hotspring\mn_hotspring01.jpg      	1	1	1	mn_hotspring01.jpg   	movNat   	3	hotspring 	21	hotspring01 	210	not_alive	0	moves	1	natural 	1	n	0	0    	 	0.0	0	87.19211339997129	87.29209800017999	0.0999846002086997
73551	100	64	stimuli\nonmovNat\sand\nmn_sand01.jpg            	1	1	1	nmn_sand01.jpg       	nonmovNat	5	sand      	31	sand01      	310	not_alive	0	still	0	natural 	1	n	0	0    	 	0.0	0	87.3421122003347	87.44210180034858	0.0999896000139415
73701	100	65	stimuli\movNat\hotspring\mn_hotspring01.jpg      	1	1	1	mn_hotspring01.jpg   	movNat   	3	hotspring 	21	hotspring01 	210	not_alive	0	moves	1	natural 	1	n	0	0    	 	0.0	0	87.4921066001989	87.592097400222	0.0999908000230789
73851	100	66	stimuli\plant2\moss\plant_moss09.jpg             	1	1	1	plant_moss09.jpg     	plant2   	7	moss      	25	moss09      	258	alive    	1	still	0	natural 	1	n	0	0    	 	0.0	0	87.6421111002564	87.7420982001349	0.0999870998784899
74001	100	67	stimuli\nonmovArt\lock\nma_lock09.jpg            	1	1	1	nma_lock09.jpg       	nonmovArt	4	lock      	24	lock09      	248	not_alive	0	still	0	artefact	0	n	0	0    	 	0.0	0	87.79210560023779	87.8920971001498	0.0999914999119937
74151	100	68	stimuli\movNat\waterfall\mn_waterfall06.jpg      	1	1	1	mn_waterfall06.jpg   	movNat   	3	waterfall 	37	waterfall06 	375	not_alive	0	moves	1	natural 	1	n	0	0    	 	0.0	0	87.9421013002284	88.04209440015259	0.0999930999241769
74301	100	69	stimuli\animals\eagle\animal_eagle07.jpg         	1	1	1	animal_eagle07.jpg   	animals  	0	eagle     	13	eagle07     	136	alive    	1	moves	1	natural 	1	n	0	0    	 	0.0	0	88.09210450015959	88.19209610018879	0.0999916000291705
74451	100	70	stimuli\nonmovArt\lock\nma_lock04.jpg            	1	1	1	nma_lock04.jpg       	nonmovArt	4	lock      	24	lock04      	243	not_alive	0	still	0	artefact	0	n	0	0    	 	0.0	0	88.24208870017901	88.3420983999968	0.10000969981774699
74601	100	71	stimuli\nonmovNat\rock\nmn_rock05.jpg            	1	1	1	nmn_rock05.jpg       	nonmovNat	5	rock      	30	rock05      	304	not_alive	0	still	0	natural 	1	n	0	0    	 	0.0	0	88.39210240030658	88.4929025000893	0.100800099782646
74751	100	72	stimuli\plant\cactus\plant_cactus09.jpg          	1	1	1	plant_cactus09.jpg   	plant    	6	cactus    	4	cactus09    	48	alive    	1	still	0	natural 	1	n	0	0    	 	0.0	0	88.5429724999703	88.642869700212	0.0998972002416849
74901	100	73	stimuli\nonmovNat\shell\nmn_shell07.jpg          	1	1	1	nmn_shell07.jpg      	nonmovNat	5	shell     	32	shell07     	326	not_alive	0	still	0	natural 	1	n	0	0    	 	0.0	0	88.69294509990141	88.7929058000446	0.0999607001431286
75051	100	74	stimuli\nonmovArt\bench\nma_bench07.jpg          	1	1	1	nma_bench07.jpg      	nonmovArt	4	bench     	1	bench07     	16	not_alive	0	still	0	artefact	0	n	0	0    	 	0.0	0	88.8429674003273	88.9429020001553	0.099934599827975
75201	100	75	stimuli\animals2\bee\animal_bee08.jpg            	1	1	1	animal_bee08.jpg     	animals2 	1	bee       	0	bee08       	7	alive    	1	moves	1	natural 	1	n	0	0    	 	0.0	0	88.9929778999649	89.09287289995702	0.0998949999921023
75351	100	76	stimuli\animals2\tiger\animal_tiger01.jpg        	1	1	1	animal_tiger01.jpg   	animals2 	1	tiger     	33	tiger01     	330	alive    	1	moves	1	natural 	1	n	0	0    	 	0.0	0	89.1429491001181	89.24289180012421	0.0999427000060677
75501	100	77	stimuli\movArt\train\ma_train02.jpg              	1	1	1	ma_train02.jpg       	movArt   	2	train     	34	train02     	341	not_alive	0	moves	1	artefact	0	n	0	0    	 	0.0	0	89.2929759002291	89.39287990005691	0.0999039998278021
75651	100	78	stimuli\animals\dog\animal_dog01.jpg             	1	1	1	animal_dog01.jpg     	animals  	0	dog       	11	dog01       	110	alive    	1	moves	1	natural 	1	n	0	0    	 	0.0	0	89.4429574999958	89.5428846003488	0.0999271003529429
75801	100	79	stimuli\nonmovArt\headphones\nma_headphones03.jpg	1	1	1	nma_headphones03.jpg 	nonmovArt	4	headphones	18	headphones03	182	not_alive	0	still	0	artefact	0	n	0	0    	 	0.0	0	89.59294510027391	89.692896600347	0.0999515000730753
80435	100	80	stimuli\animals\cat\animal_cat04.jpg             	1	2	1	animal_cat04.jpg     	animals  	0	cat       	6	cat04       	63	alive    	1	moves	1	natural 	1	n	0	0    	 	0.0	0	94.226301100105	94.3261561002582	0.0998550001531839
80585	100	81	stimuli\plant\flower\plant_flower01.jpg          	1	2	1	plant_flower01.jpg   	plant    	6	flower    	16	flower01    	160	alive    	1	still	0	natural 	1	n	0	0    	 	0.0	0	94.3762044999748	94.47614599997179	0.0999414999969303
80735	100	82	stimuli\plant\tree\plant_tree07.jpg              	1	2	1	plant_tree07.jpg     	plant    	6	tree      	35	tree07      	356	alive    	1	still	0	natural 	1	n	0	0    	 	0.0	0	94.52623079996559	94.6261362000368	0.0999054000712931
80885	100	83	stimuli\plant2\palmtree\plant_palmtree04.jpg     	1	2	1	plant_palmtree04.jpg 	plant2   	7	palmtree  	27	palmtree04  	273	alive    	1	still	0	natural 	1	n	0	0    	 	0.0	0	94.67623330000792	94.77615460008379	0.0999213000759482
81035	100	84	stimuli\plant2\moss\plant_moss06.jpg             	1	2	1	plant_moss06.jpg     	plant2   	7	moss      	25	moss06      	255	alive    	1	still	0	natural 	1	n	0	0    	 	0.0	0	94.82622930035	94.9261370003223	0.0999076999723911
81185	100	85	stimuli\movNat\fire\mn_fire03.jpg                	1	2	1	mn_fire03.jpg        	movNat   	3	fire      	15	fire03      	152	not_alive	0	moves	1	natural 	1	n	0	0    	 	0.0	0	94.9762142002583	95.0761474999599	0.0999332997016608
81335	100	86	stimuli\plant\vine\plant_vine10.jpg              	1	2	1	plant_vine10.jpg     	plant    	6	vine      	36	vine10      	369	alive    	1	still	0	natural 	1	n	0	0    	 	0.0	0	95.126225899905	95.22613000031559	0.0999041004106402
81485	100	87	stimuli\movArt\boat\ma_boat10.jpg                	1	2	1	ma_boat10.jpg        	movArt   	2	boat      	2	boat10      	29	not_alive	0	moves	1	artefact	0	n	0	0    	 	0.0	0	95.2762231999077	95.37610600003971	0.0998828001320362
81635	100	88	stimuli\nonmovNat\crystal\nmn_crystal06.jpg      	1	2	1	nmn_crystal06.jpg    	nonmovNat	5	crystal   	10	crystal06   	105	not_alive	0	still	0	natural 	1	n	0	0    	 	0.0	0	95.4262108001858	95.52613520016891	0.0999243999831378
81785	100	89	stimuli\plant\tree\plant_tree01.jpg              	1	2	1	plant_tree01.jpg     	plant    	6	tree      	35	tree01      	350	alive    	1	still	0	natural 	1	n	0	0    	 	0.0	0	95.576221300289	95.67612330010158	0.0999019998125732
81935	100	90	stimuli\movNat\river\mn_river04.jpg              	1	2	1	mn_river04.jpg       	movNat   	3	river     	29	river04     	293	not_alive	0	moves	1	natural 	1	n	0	0    	 	0.0	0	95.726239300333	95.82613780023529	0.0998984999023378
82085	100	91	stimuli\animals\dog\animal_dog06.jpg             	1	2	1	animal_dog06.jpg     	animals  	0	dog       	11	dog06       	115	alive    	1	moves	1	natural 	1	n	0	0    	 	0.0	0	95.8762105000205	95.97620559995991	0.0999950999394059
82235	100	92	stimuli\movArt\boat\ma_boat01.jpg                	1	2	1	ma_boat01.jpg        	movArt   	2	boat      	2	boat01      	20	not_alive	0	moves	1	artefact	0	n	0	0    	 	0.0	0	96.02627740008758	96.1261289003305	0.0998515002429485
82385	100	93	stimuli\animals2\whale\animal_whale03.jpg        	1	2	1	animal_whale03.jpg   	animals2 	1	whale     	39	whale03     	392	alive    	1	moves	1	natural 	1	n	0	0    	 	0.0	0	96.1761909001507	96.27613150002442	0.099940599873662
82535	100	94	stimuli\movNat\waterfall\mn_waterfall10.jpg      	1	2	1	mn_waterfall10.jpg   	movNat   	3	waterfall 	37	waterfall10 	379	not_alive	0	moves	1	natural 	1	n	0	0    	 	0.0	0	96.3262138003483	96.4261296000332	0.0999157996848225
82685	100	95	stimuli\nonmovNat\sand\nmn_sand03.jpg            	1	2	1	nmn_sand03.jpg       	nonmovNat	5	sand      	31	sand03      	312	not_alive	0	still	0	natural 	1	n	1	0    	 	0.0	0	96.47620839998129	96.57612360035999	0.0999152003787458
82835	100	96	stimuli\plant2\palmtree\plant_palmtree05.jpg     	1	2	1	plant_palmtree05.jpg 	plant2   	7	palmtree  	27	palmtree05  	274	alive    	1	still	0	natural 	1	n	0	1    	f	0.258750699926168	1	96.62621850008141	96.72612129990009	0.0999027998186648
82985	100	97	stimuli\nonmovNat\cliff\nmn_cliff04.jpg          	1	2	1	nmn_cliff04.jpg      	nonmovNat	5	cliff     	7	cliff04     	73	not_alive	0	still	0	natural 	1	n	0	0    	 	0.0	0	96.77620290033519	96.8761175000109	0.0999145996756851
83135	100	98	stimuli\animals2\lemur\animal_lemur04.jpg        	1	2	1	animal_lemur04.jpg   	animals2 	1	lemur     	23	lemur04     	233	alive    	1	moves	1	natural 	1	n	0	0    	 	0.0	0	96.92621219996359	97.02611570013691	0.0999035001732409
83285	100	99	stimuli\nonmovNat\crystal\nmn_crystal06.jpg      	1	2	1	nmn_crystal06.jpg    	nonmovNat	5	crystal   	10	crystal06   	105	not_alive	0	still	0	natural 	1	n	0	0    	 	0.0	0	97.0762068000622	97.1761163999326	0.0999095998704433
83435	100	100	stimuli\movArt\bus\ma_bus05.jpg                  	1	2	1	ma_bus05.jpg         	movArt   	2	bus       	3	bus05       	34	not_alive	0	moves	1	artefact	0	n	0	0    	 	0.0	0	97.2262003002688	97.32612850004809	0.0999281997792422
83585	100	101	stimuli\plant\grass\plant_grass01.jpg            	1	2	1	plant_grass01.jpg    	plant    	6	grass     	17	grass01     	170	alive    	1	still	0	natural 	1	n	0	0    	 	0.0	0	97.3761693001725	97.47611950011921	0.0999501999467611
83735	100	102	stimuli\animals\dolphin\animal_dolphin01.jpg     	1	2	1	animal_dolphin01.jpg 	animals  	0	dolphin   	12	dolphin01   	120	alive    	1	moves	1	natural 	1	n	0	0    	 	0.0	0	97.5262041999958	97.6261326000094	0.0999284000135958
83885	100	103	stimuli\movArt\train\ma_train03.jpg              	1	2	1	ma_train03.jpg       	movArt   	2	train     	34	train03     	342	not_alive	0	moves	1	artefact	0	n	0	0    	 	0.0	0	97.67620579991491	97.7762699001469	0.100064100231975
84035	100	104	stimuli\nonmovNat\cliff\nmn_cliff03.jpg          	1	2	1	nmn_cliff03.jpg      	nonmovNat	5	cliff     	7	cliff03     	72	not_alive	0	still	0	natural 	1	n	0	0    	 	0.0	0	97.8262049001642	97.9261739002541	0.0999690000899136
84185	100	105	stimuli\plant\flower\plant_flower10.jpg          	1	2	1	plant_flower10.jpg   	plant    	6	flower    	16	flower10    	169	alive    	1	still	0	natural 	1	n	0	0    	 	0.0	0	97.9762292001396	98.0761322001927	0.0999030000530183
84335	100	106	stimuli\plant\tree\plant_tree09.jpg              	1	2	1	plant_tree09.jpg     	plant    	6	tree      	35	tree09      	358	alive    	1	still	0	natural 	1	n	0	0    	 	0.0	0	98.1262378999963	98.2261260002852	0.0998881002888083
84485	100	107	stimuli\nonmovArt\clothespeg\nma_clothespeg10.jpg	1	2	1	nma_clothespeg10.jpg 	nonmovArt	4	clothespeg	8	clothespeg10	89	not_alive	0	still	0	artefact	0	n	0	0    	 	0.0	0	98.27620630012821	98.3761003999971	0.099894099868834
84635	100	108	stimuli\nonmovArt\lock\nma_lock05.jpg            	1	2	1	nma_lock05.jpg       	nonmovArt	4	lock      	24	lock05      	244	not_alive	0	still	0	artefact	0	n	0	0    	 	0.0	0	98.42620650026952	98.52613750006999	0.0999309998005628
84785	100	109	stimuli\movNat\river\mn_river08.jpg              	1	2	1	mn_river08.jpg       	movNat   	3	river     	29	river08     	297	not_alive	0	moves	1	natural 	1	n	0	0    	 	0.0	0	98.576213600114	98.6761083002202	0.0998947001062333
84935	100	110	stimuli\movArt\bus\ma_bus05.jpg                  	1	2	1	ma_bus05.jpg         	movArt   	2	bus       	3	bus05       	34	not_alive	0	moves	1	artefact	0	n	0	0    	 	0.0	0	98.72617290029301	98.82609890028841	0.099925999995321
85085	100	111	stimuli\nonmovNat\rock\nmn_rock02.jpg            	1	2	1	nmn_rock02.jpg       	nonmovNat	5	rock      	30	rock02      	301	not_alive	0	still	0	natural 	1	n	0	0    	 	0.0	0	98.8761996002868	98.9761006999761	0.0999010996893048
85235	100	112	stimuli\plant2\clover\plant_clover05.jpg         	1	2	1	plant_clover05.jpg   	plant2   	7	clover    	9	clover05    	94	alive    	1	still	0	natural 	1	n	0	0    	 	0.0	0	99.0261967000552	99.12610080000009	0.0999040999449789
85385	100	113	stimuli\movNat\fire\mn_fire04.jpg                	1	2	1	mn_fire04.jpg        	movNat   	3	fire      	15	fire04      	153	not_alive	0	moves	1	natural 	1	n	0	0    	 	0.0	0	99.17618250008671	99.27612560009581	0.0999431000091135
85535	100	114	stimuli\plant\flower\plant_flower04.jpg          	1	2	1	plant_flower04.jpg   	plant    	6	flower    	16	flower04    	163	alive    	1	still	0	natural 	1	n	0	0    	 	0.0	0	99.32618120033301	99.42611390026279	0.0999326999299228
85685	100	115	stimuli\animals\eagle\animal_eagle02.jpg         	1	2	1	animal_eagle02.jpg   	animals  	0	eagle     	13	eagle02     	131	alive    	1	moves	1	natural 	1	n	0	0    	 	0.0	0	99.4762090002187	99.57621000008659	0.100000999867916
85835	100	116	stimuli\nonmovNat\crystal\nmn_crystal01.jpg      	1	2	1	nmn_crystal01.jpg    	nonmovNat	5	crystal   	10	crystal01   	100	not_alive	0	still	0	natural 	1	n	0	0    	 	0.0	0	99.6262862002477	99.7261287001893	0.0998424999415874
85985	100	117	stimuli\nonmovArt\clothespeg\nma_clothespeg04.jpg	1	2	1	nma_clothespeg04.jpg 	nonmovArt	4	clothespeg	8	clothespeg04	83	not_alive	0	still	0	artefact	0	n	0	0    	 	0.0	0	99.77622080035509	99.87612120015551	0.09990039980039
86135	100	118	stimuli\animals2\pigeon\animal_pigeon04.jpg      	1	2	1	animal_pigeon04.jpg  	animals2 	1	pigeon    	28	pigeon04    	283	alive    	1	moves	1	natural 	1	n	1	0    	 	0.0	0	99.9261798001826	100.026119000278	0.0999392000958323
86285	100	119	stimuli\movArt\helicopter\ma_helicopter03.jpg    	1	2	1	ma_helicopter03.jpg  	movArt   	2	helicopter	19	helicopter03	192	not_alive	0	moves	1	artefact	0	n	0	0    	 	0.0	0	100.076172400266	100.176083300263	0.0999108999967575
86435	100	120	stimuli\movArt\boat\ma_boat04.jpg                	1	2	1	ma_boat04.jpg        	movArt   	2	boat      	2	boat04      	23	not_alive	0	moves	1	artefact	0	n	0	1    	f	0.30020679999142896	1	100.226185500156	100.326118000317	0.0999325001612305
86585	100	121	stimuli\animals\eagle\animal_eagle07.jpg         	1	2	1	animal_eagle07.jpg   	animals  	0	eagle     	13	eagle07     	136	alive    	1	moves	1	natural 	1	n	0	0    	 	0.0	0	100.376171499956	100.476113700308	0.0999422003515064
86735	100	122	stimuli\plant\grass\plant_grass03.jpg            	1	2	1	plant_grass03.jpg    	plant    	6	grass     	17	grass03     	172	alive    	1	still	0	natural 	1	n	0	0    	 	0.0	0	100.52619400015101	100.626099000219	0.0999050000682473
86885	100	123	stimuli\plant2\moss\plant_moss01.jpg             	1	2	1	plant_moss01.jpg     	plant2   	7	moss      	25	moss01      	250	alive    	1	still	0	natural 	1	n	0	0    	 	0.0	0	100.67619260028	100.77609990024901	0.0999072999693453
87035	100	124	stimuli\nonmovNat\rock\nmn_rock07.jpg            	1	2	1	nmn_rock07.jpg       	nonmovNat	5	rock      	30	rock07      	306	not_alive	0	still	0	natural 	1	n	0	0    	 	0.0	0	100.82618679990999	100.92609980003901	0.0999130001291632
87185	100	125	stimuli\movArt\bus\ma_bus07.jpg                  	1	2	1	ma_bus07.jpg         	movArt   	2	bus       	3	bus07       	36	not_alive	0	moves	1	artefact	0	n	0	0    	 	0.0	0	100.976196400356	101.076098599937	0.0999021995812654
87335	100	126	stimuli\plant\cactus\plant_cactus02.jpg          	1	2	1	plant_cactus02.jpg   	plant    	6	cactus    	4	cactus02    	41	alive    	1	still	0	natural 	1	n	0	0    	 	0.0	0	101.12618810031601	101.22607249999399	0.0998843996785581
87485	100	127	stimuli\nonmovArt\bench\nma_bench01.jpg          	1	2	1	nma_bench01.jpg      	nonmovArt	4	bench     	1	bench01     	10	not_alive	0	still	0	artefact	0	n	0	0    	 	0.0	0	101.27621200028798	101.376147100236	0.0999350999481976
87635	100	128	stimuli\animals\dolphin\animal_dolphin09.jpg     	1	2	1	animal_dolphin09.jpg 	animals  	0	dolphin   	12	dolphin09   	128	alive    	1	moves	1	natural 	1	n	0	0    	 	0.0	0	101.42626109998699	101.526098400354	0.0998373003676533
87785	100	129	stimuli\movNat\waves\mn_waves10.jpg              	1	2	1	mn_waves10.jpg       	movNat   	3	waves     	38	waves10     	389	not_alive	0	moves	1	natural 	1	n	0	0    	 	0.0	0	101.576181900222	101.676060100086	0.0998781998641789
87935	100	130	stimuli\plant\flower\plant_flower09.jpg          	1	2	1	plant_flower09.jpg   	plant    	6	flower    	16	flower09    	168	alive    	1	still	0	natural 	1	n	0	0    	 	0.0	0	101.72616960015101	101.82609270000799	0.0999230998568236
88085	100	131	stimuli\plant2\clover\plant_clover04.jpg         	1	2	1	plant_clover04.jpg   	plant2   	7	clover    	9	clover04    	93	alive    	1	still	0	natural 	1	n	0	0    	 	0.0	0	101.876170800067	101.97608319995899	0.0999123998917639
88235	100	132	stimuli\nonmovNat\shell\nmn_shell09.jpg          	1	2	1	nmn_shell09.jpg      	nonmovNat	5	shell     	32	shell09     	328	not_alive	0	still	0	natural 	1	n	0	0    	 	0.0	0	102.02624909998801	102.12610320001801	0.0998541000299155
88385	100	133	stimuli\nonmovArt\clothespeg\nma_clothespeg06.jpg	1	2	1	nma_clothespeg06.jpg 	nonmovArt	4	clothespeg	8	clothespeg06	85	not_alive	0	still	0	artefact	0	n	0	0    	 	0.0	0	102.17615610035101	102.27607410028601	0.09991799993440499
88535	100	134	stimuli\nonmovNat\sand\nmn_sand01.jpg            	1	2	1	nmn_sand01.jpg       	nonmovNat	5	sand      	31	sand01      	310	not_alive	0	still	0	natural 	1	n	0	0    	 	0.0	0	102.326177000068	102.42608200013599	0.0999050000682473
88685	100	135	stimuli\nonmovArt\lock\nma_lock06.jpg            	1	2	1	nma_lock06.jpg       	nonmovArt	4	lock      	24	lock06      	245	not_alive	0	still	0	artefact	0	n	0	0    	 	0.0	0	102.476171900053	102.57607750035801	0.0999056003056466
88835	100	136	stimuli\animals\eagle\animal_eagle04.jpg         	1	2	1	animal_eagle04.jpg   	animals  	0	eagle     	13	eagle04     	133	alive    	1	moves	1	natural 	1	n	0	0    	 	0.0	0	102.62613489991101	102.726080700289	0.0999458003789186
88985	100	137	stimuli\nonmovNat\rock\nmn_rock07.jpg            	1	2	1	nmn_rock07.jpg       	nonmovNat	5	rock      	30	rock07      	306	not_alive	0	still	0	natural 	1	n	0	0    	 	0.0	0	102.776175300125	102.876071800012	0.0998964998871088
89135	100	138	stimuli\animals2\bee\animal_bee03.jpg            	1	2	1	animal_bee03.jpg     	animals2 	1	bee       	0	bee03       	2	alive    	1	moves	1	natural 	1	n	0	0    	 	0.0	0	102.92613360006399	103.026077799965	0.0999441999010741
89285	100	139	stimuli\animals2\whale\animal_whale09.jpg        	1	2	1	animal_whale09.jpg   	animals2 	1	whale     	39	whale09     	398	alive    	1	moves	1	natural 	1	n	0	0    	 	0.0	0	103.07619090005801	103.17616110015699	0.099970200099051
89435	100	140	stimuli\nonmovArt\bench\nma_bench05.jpg          	1	2	1	nma_bench05.jpg      	nonmovArt	4	bench     	1	bench05     	14	not_alive	0	still	0	artefact	0	n	0	0    	 	0.0	0	103.226242700126	103.32608229992901	0.0998395998030901
89585	100	141	stimuli\movNat\hotspring\mn_hotspring07.jpg      	1	2	1	mn_hotspring07.jpg   	movNat   	3	hotspring 	21	hotspring07 	216	not_alive	0	moves	1	natural 	1	n	0	0    	 	0.0	0	103.376162900124	103.47605299996201	0.09989009983837599
89735	100	142	stimuli\animals2\whale\animal_whale09.jpg        	1	2	1	animal_whale09.jpg   	animals2 	1	whale     	39	whale09     	398	alive    	1	moves	1	natural 	1	n	0	0    	 	0.0	0	103.52615630021299	103.626044500154	0.0998881999403238
89885	100	143	stimuli\nonmovArt\lock\nma_lock10.jpg            	1	2	1	nma_lock10.jpg       	nonmovArt	4	lock      	24	lock10      	249	not_alive	0	still	0	artefact	0	n	0	0    	 	0.0	0	103.67612920003	103.776078199968	0.0999489999376237
90035	100	144	stimuli\animals2\tiger\animal_tiger09.jpg        	1	2	1	animal_tiger09.jpg   	animals2 	1	tiger     	33	tiger09     	338	alive    	1	moves	1	natural 	1	n	0	0    	 	0.0	0	103.82613660022601	103.926080000121	0.0999433998949825
90185	100	145	stimuli\nonmovNat\shell\nmn_shell06.jpg          	1	2	1	nmn_shell06.jpg      	nonmovNat	5	shell     	32	shell06     	325	not_alive	0	still	0	natural 	1	n	0	0    	 	0.0	0	103.976161899976	104.076066300273	0.0999044002965092
90335	100	146	stimuli\animals\horse\animal_horse02.jpg         	1	2	1	animal_horse02.jpg   	animals  	0	horse     	20	horse02     	201	alive    	1	moves	1	natural 	1	n	0	0    	 	0.0	0	104.126148700248	104.22607200034001	0.0999233000911772
90485	100	147	stimuli\plant2\lemontree\plant_lemontree09.jpg   	1	2	1	plant_lemontree09.jpg	plant2   	7	lemontree 	22	lemontree09 	228	alive    	1	still	0	natural 	1	n	0	0    	 	0.0	0	104.276151600294	104.37607520027099	0.0999235999770462
90635	100	148	stimuli\movNat\fire\mn_fire10.jpg                	1	2	1	mn_fire10.jpg        	movNat   	3	fire      	15	fire10      	159	not_alive	0	moves	1	natural 	1	n	0	0    	 	0.0	0	104.42611890006799	104.526056100149	0.0999372000806033
90785	100	149	stimuli\plant\cactus\plant_cactus04.jpg          	1	2	1	plant_cactus04.jpg   	plant    	6	cactus    	4	cactus04    	43	alive    	1	still	0	natural 	1	n	0	0    	 	0.0	0	104.576136100106	104.67605879996	0.0999226998537778
90935	100	150	stimuli\animals\dolphin\animal_dolphin09.jpg     	1	2	1	animal_dolphin09.jpg 	animals  	0	dolphin   	12	dolphin09   	128	alive    	1	moves	1	natural 	1	n	0	0    	 	0.0	0	104.726137199905	104.826081499923	0.0999443000182509
91085	100	151	stimuli\movNat\fire\mn_fire02.jpg                	1	2	1	mn_fire02.jpg        	movNat   	3	fire      	15	fire02      	151	not_alive	0	moves	1	natural 	1	n	0	0    	 	0.0	0	104.87618000013799	104.97616100031901	0.0999810001812875
91235	100	152	stimuli\plant2\palmtree\plant_palmtree02.jpg     	1	2	1	plant_palmtree02.jpg 	plant2   	7	palmtree  	27	palmtree02  	271	alive    	1	still	0	natural 	1	n	0	0    	 	0.0	0	105.0262484001	105.126055700239	0.0998073001392185
91385	100	153	stimuli\animals\cat\animal_cat08.jpg             	1	2	1	animal_cat08.jpg     	animals  	0	cat       	6	cat08       	67	alive    	1	moves	1	natural 	1	n	0	0    	 	0.0	0	105.176127099898	105.27605720004101	0.0999301001429557
91535	100	154	stimuli\plant\cactus\plant_cactus04.jpg          	1	2	1	plant_cactus04.jpg   	plant    	6	cactus    	4	cactus04    	43	alive    	1	still	0	natural 	1	n	0	0    	 	0.0	0	105.32613279996401	105.426051000133	0.0999182001687586
91685	100	155	stimuli\movNat\river\mn_river04.jpg              	1	2	1	mn_river04.jpg       	movNat   	3	river     	29	river04     	293	not_alive	0	moves	1	natural 	1	n	0	0    	 	0.0	0	105.47614620020599	105.576056600083	0.0999103998765349
91835	100	156	stimuli\plant2\lemontree\plant_lemontree10.jpg   	1	2	1	plant_lemontree10.jpg	plant2   	7	lemontree 	22	lemontree10 	229	alive    	1	still	0	natural 	1	n	0	0    	 	0.0	0	105.626106800046	105.72604650026199	0.0999397002160549
91985	100	157	stimuli\movArt\car\ma_car04.jpg                  	1	2	1	ma_car04.jpg         	movArt   	2	car       	5	car04       	53	not_alive	0	moves	1	artefact	0	n	0	0    	 	0.0	0	105.776123400312	105.876055900007	0.0999324996955692
92135	100	158	stimuli\nonmovNat\sand\nmn_sand05.jpg            	1	2	1	nmn_sand05.jpg       	nonmovNat	5	sand      	31	sand05      	314	not_alive	0	still	0	natural 	1	n	0	0    	 	0.0	0	105.926115500275	106.026040399913	0.0999248996376991
92285	100	159	stimuli\animals2\bee\animal_bee07.jpg            	1	2	1	animal_bee07.jpg     	animals2 	1	bee       	0	bee07       	6	alive    	1	moves	1	natural 	1	n	0	0    	 	0.0	0	106.07614220026899	106.176020900253	0.0998786999844014
97035	100	160	stimuli\movArt\train\ma_train03.jpg              	1	3	1	ma_train03.jpg       	movArt   	2	train     	34	train03     	342	not_alive	0	moves	1	artefact	0	n	0	0    	 	0.0	0	110.826080800034	110.925981699955	0.0999008999206125
97185	100	161	stimuli\nonmovArt\bench\nma_bench08.jpg          	1	3	1	nma_bench08.jpg      	nonmovArt	4	bench     	1	bench08     	17	not_alive	0	still	0	artefact	0	n	0	0    	 	0.0	0	110.97603520005899	111.07596540032	0.0999302002601325
97335	100	162	stimuli\animals2\pigeon\animal_pigeon05.jpg      	1	3	1	animal_pigeon05.jpg  	animals2 	1	pigeon    	28	pigeon05    	284	alive    	1	moves	1	natural 	1	n	0	0    	 	0.0	0	111.126060599927	111.225968800019	0.0999082000926137
97485	100	163	stimuli\plant\grass\plant_grass04.jpg            	1	3	1	plant_grass04.jpg    	plant    	6	grass     	17	grass04     	173	alive    	1	still	0	natural 	1	n	0	0    	 	0.0	0	111.276050300337	111.37594219995701	0.0998918996192514
97635	100	164	stimuli\animals\dog\animal_dog01.jpg             	1	3	1	animal_dog01.jpg     	animals  	0	dog       	11	dog01       	110	alive    	1	moves	1	natural 	1	n	0	0    	 	0.0	0	111.42604280030399	111.525968300179	0.0999254998750984
97785	100	165	stimuli\nonmovArt\headphones\nma_headphones02.jpg	1	3	1	nma_headphones02.jpg 	nonmovArt	4	headphones	18	headphones02	181	not_alive	0	still	0	artefact	0	n	0	0    	 	0.0	0	111.57605300005501	111.67596000013901	0.0999070000834763
97935	100	166	stimuli\movNat\river\mn_river10.jpg              	1	3	1	mn_river10.jpg       	movNat   	3	river     	29	river10     	299	not_alive	0	moves	1	natural 	1	n	0	0    	 	0.0	0	111.726050599944	111.82596640009399	0.0999158001504838
98085	100	167	stimuli\plant\vine\plant_vine07.jpg              	1	3	1	plant_vine07.jpg     	plant    	6	vine      	36	vine07      	366	alive    	1	still	0	natural 	1	n	0	0    	 	0.0	0	111.876031700056	111.975968100131	0.0999364000745117
98235	100	168	stimuli\animals\horse\animal_horse03.jpg         	1	3	1	animal_horse03.jpg   	animals  	0	horse     	20	horse03     	202	alive    	1	moves	1	natural 	1	n	0	0    	 	0.0	0	112.026042500045	112.12595260003599	0.0999100999906659
98385	100	169	stimuli\animals2\bee\animal_bee04.jpg            	1	3	1	animal_bee04.jpg     	animals2 	1	bee       	0	bee04       	3	alive    	1	moves	1	natural 	1	n	0	0    	 	0.0	0	112.176058900077	112.275946500245	0.0998876001685857
98535	100	170	stimuli\movNat\waterfall\mn_waterfall06.jpg      	1	3	1	mn_waterfall06.jpg   	movNat   	3	waterfall 	37	waterfall06 	375	not_alive	0	moves	1	natural 	1	n	0	0    	 	0.0	0	112.326035200153	112.425955400337	0.0999202001839876
98685	100	171	stimuli\animals\dog\animal_dog06.jpg             	1	3	1	animal_dog06.jpg     	animals  	0	dog       	11	dog06       	115	alive    	1	moves	1	natural 	1	n	0	0    	 	0.0	0	112.476031300146	112.575958299916	0.0999269997701048
98835	100	172	stimuli\movNat\waves\mn_waves04.jpg              	1	3	1	mn_waves04.jpg       	movNat   	3	waves     	38	waves04     	383	not_alive	0	moves	1	natural 	1	n	0	0    	 	0.0	0	112.62604800006399	112.72595710028	0.099909100215882
98985	100	173	stimuli\nonmovArt\headphones\nma_headphones01.jpg	1	3	1	nma_headphones01.jpg 	nonmovArt	4	headphones	18	headphones01	180	not_alive	0	still	0	artefact	0	n	0	0    	 	0.0	0	112.776045999955	112.875947700348	0.0999017003923654
99135	100	174	stimuli\plant2\moss\plant_moss06.jpg             	1	3	1	plant_moss06.jpg     	plant2   	7	moss      	25	moss06      	255	alive    	1	still	0	natural 	1	n	0	0    	 	0.0	0	112.92603490036001	113.025942699984	0.0999077996239066
99285	100	175	stimuli\plant2\lemontree\plant_lemontree10.jpg   	1	3	1	plant_lemontree10.jpg	plant2   	7	lemontree 	22	lemontree10 	229	alive    	1	still	0	natural 	1	n	0	0    	 	0.0	0	113.076032100245	113.17595480009899	0.0999226998537778
99435	100	176	stimuli\nonmovArt\lock\nma_lock01.jpg            	1	3	1	nma_lock01.jpg       	nonmovArt	4	lock      	24	lock01      	240	not_alive	0	still	0	artefact	0	n	0	0    	 	0.0	0	113.22603000001999	113.325936200097	0.0999062000773847
99585	100	177	stimuli\movNat\waterfall\mn_waterfall02.jpg      	1	3	1	mn_waterfall02.jpg   	movNat   	3	waterfall 	37	waterfall02 	371	not_alive	0	moves	1	natural 	1	n	0	0    	 	0.0	0	113.375996000133	113.47594569996001	0.0999496998265385
99735	100	178	stimuli\plant2\fern\plant_fern04.jpg             	1	3	1	plant_fern04.jpg     	plant2   	7	fern      	14	fern04      	143	alive    	1	still	0	natural 	1	n	0	0    	 	0.0	0	113.526034700219	113.62595820007799	0.0999234998598694
99885	100	179	stimuli\plant2\fern\plant_fern03.jpg             	1	3	1	plant_fern03.jpg     	plant2   	7	fern      	14	fern03      	142	alive    	1	still	0	natural 	1	n	0	0    	 	0.0	0	113.67601589998199	113.77594100031999	0.0999251003377139
100035	100	180	stimuli\plant\vine\plant_vine08.jpg              	1	3	1	plant_vine08.jpg     	plant    	6	vine      	36	vine08      	367	alive    	1	still	0	natural 	1	n	0	0    	 	0.0	0	113.82602260028901	113.92593570007	0.0999130997806787
100185	100	181	stimuli\animals\dolphin\animal_dolphin10.jpg     	1	3	1	animal_dolphin10.jpg 	animals  	0	dolphin   	12	dolphin10   	129	alive    	1	moves	1	natural 	1	n	1	0    	 	0.0	0	113.97602039994699	114.07593009993401	0.0999096999876201
100335	100	182	stimuli\nonmovArt\headphones\nma_headphones08.jpg	1	3	1	nma_headphones08.jpg 	nonmovArt	4	headphones	18	headphones08	187	not_alive	0	still	0	artefact	0	n	1	1    	f	0.101938699837774	1	114.126014300156	114.225946400315	0.0999321001581847
100485	100	183	stimuli\animals2\pigeon\animal_pigeon06.jpg      	1	3	1	animal_pigeon06.jpg  	animals2 	1	pigeon    	28	pigeon06    	285	alive    	1	moves	1	natural 	1	n	0	0    	 	0.0	0	114.276024200022	114.37590350024401	0.0998793002218008
100635	100	184	stimuli\movArt\helicopter\ma_helicopter05.jpg    	1	3	1	ma_helicopter05.jpg  	movArt   	2	helicopter	19	helicopter05	194	not_alive	0	moves	1	artefact	0	n	0	0    	 	0.0	0	114.426015800331	114.52592940023199	0.0999135999009013
100785	100	185	stimuli\movArt\bus\ma_bus01.jpg                  	1	3	1	ma_bus01.jpg         	movArt   	2	bus       	3	bus01       	30	not_alive	0	moves	1	artefact	0	n	0	0    	 	0.0	0	114.576005599927	114.675931300037	0.099925700109452
100935	100	186	stimuli\plant\grass\plant_grass07.jpg            	1	3	1	plant_grass07.jpg    	plant    	6	grass     	17	grass07     	176	alive    	1	still	0	natural 	1	n	0	0    	 	0.0	0	114.726014900021	114.82593169994699	0.0999167999252677
101085	100	187	stimuli\animals2\tiger\animal_tiger07.jpg        	1	3	1	animal_tiger07.jpg   	animals2 	1	tiger     	33	tiger07     	336	alive    	1	moves	1	natural 	1	n	0	0    	 	0.0	0	114.876026200131	114.975930199958	0.0999039998278021
101235	100	188	stimuli\animals2\tiger\animal_tiger03.jpg        	1	3	1	animal_tiger03.jpg   	animals2 	1	tiger     	33	tiger03     	332	alive    	1	moves	1	natural 	1	n	0	0    	 	0.0	0	115.02600549999599	115.12593859992901	0.0999330999329686
101385	100	189	stimuli\animals2\whale\animal_whale04.jpg        	1	3	1	animal_whale04.jpg   	animals2 	1	whale     	39	whale04     	393	alive    	1	moves	1	natural 	1	n	0	0    	 	0.0	0	115.176023600157	115.275922300294	0.0998987001366913
101535	100	190	stimuli\nonmovNat\cliff\nmn_cliff09.jpg          	1	3	1	nmn_cliff09.jpg      	nonmovNat	5	cliff     	7	cliff09     	78	not_alive	0	still	0	natural 	1	n	0	0    	 	0.0	0	115.32600350026001	115.425925400108	0.0999218998476862
101685	100	191	stimuli\movArt\car\ma_car10.jpg                  	1	3	1	ma_car10.jpg         	movArt   	2	car       	5	car10       	59	not_alive	0	moves	1	artefact	0	n	0	0    	 	0.0	0	115.476000099909	115.575914599933	0.0999145000241696
101835	100	192	stimuli\plant\flower\plant_flower02.jpg          	1	3	1	plant_flower02.jpg   	plant    	6	flower    	16	flower02    	161	alive    	1	still	0	natural 	1	n	0	0    	 	0.0	0	115.62600830011101	115.725994400214	0.0999861001037061
101985	100	193	stimuli\plant\tree\plant_tree05.jpg              	1	3	1	plant_tree05.jpg     	plant    	6	tree      	35	tree05      	354	alive    	1	still	0	natural 	1	n	0	0    	 	0.0	0	115.77604450006001	115.875917300116	0.0998728000558912
102135	100	194	stimuli\plant2\clover\plant_clover01.jpg         	1	3	1	plant_clover01.jpg   	plant2   	7	clover    	9	clover01    	90	alive    	1	still	0	natural 	1	n	0	0    	 	0.0	0	115.92600600002301	116.025917300023	0.0999112999998033
102285	100	195	stimuli\plant\tree\plant_tree02.jpg              	1	3	1	plant_tree02.jpg     	plant    	6	tree      	35	tree02      	351	alive    	1	still	0	natural 	1	n	0	0    	 	0.0	0	116.076001200359	116.17591950018	0.0999182998202741
102435	100	196	stimuli\nonmovArt\clothespeg\nma_clothespeg10.jpg	1	3	1	nma_clothespeg10.jpg 	nonmovArt	4	clothespeg	8	clothespeg10	89	not_alive	0	still	0	artefact	0	n	0	0    	 	0.0	0	116.22599430009701	116.325903400313	0.099909100215882
102585	100	197	stimuli\movArt\helicopter\ma_helicopter07.jpg    	1	3	1	ma_helicopter07.jpg  	movArt   	2	helicopter	19	helicopter07	196	not_alive	0	moves	1	artefact	0	n	1	0    	 	0.0	0	116.37597220018499	116.47591260028999	0.0999404001049697
102735	100	198	stimuli\animals2\lemur\animal_lemur09.jpg        	1	3	1	animal_lemur09.jpg   	animals2 	1	lemur     	23	lemur09     	238	alive    	1	moves	1	natural 	1	n	0	0    	 	0.0	0	116.525994800031	116.625908799935	0.0999139999039471
102885	100	199	stimuli\nonmovArt\mug\nma_mug03.jpg              	1	3	1	nma_mug03.jpg        	nonmovArt	4	mug       	26	mug03       	262	not_alive	0	still	0	artefact	0	n	0	1    	f	0.292059499770403	1	116.675998900086	116.775911299977	0.0999123998917639
103035	100	200	stimuli\movArt\car\ma_car06.jpg                  	1	3	1	ma_car06.jpg         	movArt   	2	car       	5	car06       	55	not_alive	0	moves	1	artefact	0	n	0	0    	 	0.0	0	116.825976000167	116.925910199992	0.0999341998249292
103185	100	201	stimuli\nonmovArt\clothespeg\nma_clothespeg09.jpg	1	3	1	nma_clothespeg09.jpg 	nonmovArt	4	clothespeg	8	clothespeg09	88	not_alive	0	still	0	artefact	0	n	0	0    	 	0.0	0	116.975998500362	117.075905800331	0.0999072999693453
103335	100	202	stimuli\animals\horse\animal_horse09.jpg         	1	3	1	animal_horse09.jpg   	animals  	0	horse     	20	horse09     	208	alive    	1	moves	1	natural 	1	n	0	0    	 	0.0	0	117.125981499907	117.225902300328	0.0999208004213869
103485	100	203	stimuli\movNat\river\mn_river02.jpg              	1	3	1	mn_river02.jpg       	movNat   	3	river     	29	river02     	291	not_alive	0	moves	1	natural 	1	n	0	0    	 	0.0	0	117.27600040007401	117.375898700207	0.0998983001336455
103635	100	204	stimuli\plant2\palmtree\plant_palmtree01.jpg     	1	3	1	plant_palmtree01.jpg 	plant2   	7	palmtree  	27	palmtree01  	270	alive    	1	still	0	natural 	1	n	0	0    	 	0.0	0	117.425986499991	117.525911100209	0.0999246002174914
103785	100	205	stimuli\animals2\pigeon\animal_pigeon04.jpg      	1	3	1	animal_pigeon04.jpg  	animals2 	1	pigeon    	28	pigeon04    	283	alive    	1	moves	1	natural 	1	n	0	0    	 	0.0	0	117.575997000095	117.67588370014	0.0998867000453174
103935	100	206	stimuli\movArt\bus\ma_bus02.jpg                  	1	3	1	ma_bus02.jpg         	movArt   	2	bus       	3	bus02       	31	not_alive	0	moves	1	artefact	0	n	0	0    	 	0.0	0	117.725976400077	117.82590620033399	0.0999298002570867
104085	100	207	stimuli\movNat\hotspring\mn_hotspring03.jpg      	1	3	1	mn_hotspring03.jpg   	movNat   	3	hotspring 	21	hotspring03 	212	not_alive	0	moves	1	natural 	1	n	0	0    	 	0.0	0	117.87598160002399	117.975897900295	0.0999163002707064
104235	100	208	stimuli\nonmovNat\cliff\nmn_cliff08.jpg          	1	3	1	nmn_cliff08.jpg      	nonmovNat	5	cliff     	7	cliff08     	77	not_alive	0	still	0	natural 	1	n	0	0    	 	0.0	0	118.025961200241	118.125890899915	0.0999296996742487
104385	100	209	stimuli\movArt\train\ma_train05.jpg              	1	3	1	ma_train05.jpg       	movArt   	2	train     	34	train05     	344	not_alive	0	moves	1	artefact	0	n	0	0    	 	0.0	0	118.175979100168	118.275889500044	0.0999103998765349
104535	100	210	stimuli\animals2\lemur\animal_lemur02.jpg        	1	3	1	animal_lemur02.jpg   	animals2 	1	lemur     	23	lemur02     	231	alive    	1	moves	1	natural 	1	n	0	0    	 	0.0	0	118.325973300263	118.425886800047	0.0999134997837245
104685	100	211	stimuli\movArt\train\ma_train05.jpg              	1	3	1	ma_train05.jpg       	movArt   	2	train     	34	train05     	344	not_alive	0	moves	1	artefact	0	n	0	0    	 	0.0	0	118.475985600147	118.57589330011999	0.0999076999723911
104835	100	212	stimuli\movNat\hotspring\mn_hotspring01.jpg      	1	3	1	mn_hotspring01.jpg   	movNat   	3	hotspring 	21	hotspring01 	210	not_alive	0	moves	1	natural 	1	n	0	0    	 	0.0	0	118.62596660014201	118.725886300206	0.099919700063765
104985	100	213	stimuli\animals\eagle\animal_eagle04.jpg         	1	3	1	animal_eagle04.jpg   	animals  	0	eagle     	13	eagle04     	133	alive    	1	moves	1	natural 	1	n	0	0    	 	0.0	0	118.775987599976	118.87589409994	0.0999064999632537
105135	100	214	stimuli\nonmovNat\crystal\nmn_crystal04.jpg      	1	3	1	nmn_crystal04.jpg    	nonmovNat	5	crystal   	10	crystal04   	103	not_alive	0	still	0	natural 	1	n	0	0    	 	0.0	0	118.925973000005	119.025886100251	0.09991310024634
105285	100	215	stimuli\animals\cat\animal_cat08.jpg             	1	3	1	animal_cat08.jpg     	animals  	0	cat       	6	cat08       	67	alive    	1	moves	1	natural 	1	n	0	0    	 	0.0	0	119.07597590005	119.175888100173	0.0999122001230716
105435	100	216	stimuli\movArt\boat\ma_boat04.jpg                	1	3	1	ma_boat04.jpg        	movArt   	2	boat      	2	boat04      	23	not_alive	0	moves	1	artefact	0	n	0	0    	 	0.0	0	119.22596630035	119.325892399997	0.0999260996468365
105585	100	217	stimuli\plant\vine\plant_vine03.jpg              	1	3	1	plant_vine03.jpg     	plant    	6	vine      	36	vine03      	362	alive    	1	still	0	natural 	1	n	0	0    	 	0.0	0	119.375933600124	119.475879100151	0.0999455000273883
105735	100	218	stimuli\animals\dog\animal_dog09.jpg             	1	3	1	animal_dog09.jpg     	animals  	0	dog       	11	dog09       	118	alive    	1	moves	1	natural 	1	n	0	0    	 	0.0	0	119.525995200034	119.625876400154	0.09988120011985302
105885	100	219	stimuli\nonmovNat\shell\nmn_shell09.jpg          	1	3	1	nmn_shell09.jpg      	nonmovNat	5	shell     	32	shell09     	328	not_alive	0	still	0	natural 	1	n	0	0    	 	0.0	0	119.67595520010201	119.775890599936	0.0999353998340666
106035	100	220	stimuli\plant\tree\plant_tree08.jpg              	1	3	1	plant_tree08.jpg     	plant    	6	tree      	35	tree08      	357	alive    	1	still	0	natural 	1	n	0	0    	 	0.0	0	119.825958600268	119.92586730001499	0.0999086997471749
106185	100	221	stimuli\plant2\palmtree\plant_palmtree10.jpg     	1	3	1	plant_palmtree10.jpg 	plant2   	7	palmtree  	27	palmtree10  	279	alive    	1	still	0	natural 	1	n	0	0    	 	0.0	0	119.975957900286	120.07587910024401	0.0999211999587714
106335	100	222	stimuli\nonmovNat\crystal\nmn_crystal04.jpg      	1	3	1	nmn_crystal04.jpg    	nonmovNat	5	crystal   	10	crystal04   	103	not_alive	0	still	0	natural 	1	n	0	0    	 	0.0	0	120.125956800301	120.225866400171	0.0999095998704433
106485	100	223	stimuli\movArt\helicopter\ma_helicopter01.jpg    	1	3	1	ma_helicopter01.jpg  	movArt   	2	helicopter	19	helicopter01	190	not_alive	0	moves	1	artefact	0	n	0	0    	 	0.0	0	120.27595360018299	120.375838099979	0.0998844997957348
106635	100	224	stimuli\nonmovNat\cliff\nmn_cliff01.jpg          	1	3	1	nmn_cliff01.jpg      	nonmovNat	5	cliff     	7	cliff01     	70	not_alive	0	still	0	natural 	1	n	0	0    	 	0.0	0	120.425959600136	120.525867400225	0.0999078000895679
106785	100	225	stimuli\movNat\fire\mn_fire02.jpg                	1	3	1	mn_fire02.jpg        	movNat   	3	fire      	15	fire02      	151	not_alive	0	moves	1	natural 	1	n	1	0    	 	0.0	0	120.57594870030898	120.67584450030701	0.0998957999981939
106935	100	226	stimuli\nonmovNat\rock\nmn_rock09.jpg            	1	3	1	nmn_rock09.jpg       	nonmovNat	5	rock      	30	rock09      	308	not_alive	0	still	0	natural 	1	n	0	0    	 	0.0	0	120.72593860002199	120.825849600136	0.0999110001139342
107085	100	227	stimuli\nonmovArt\mug\nma_mug03.jpg              	1	3	1	nma_mug03.jpg        	nonmovArt	4	mug       	26	mug03       	262	not_alive	0	still	0	artefact	0	n	0	1    	f	0.292051699943841	1	120.875944900326	120.97584660025299	0.0999016999267041
107235	100	228	stimuli\nonmovNat\sand\nmn_sand02.jpg            	1	3	1	nmn_sand02.jpg       	nonmovNat	5	sand      	31	sand02      	311	not_alive	0	still	0	natural 	1	n	0	0    	 	0.0	0	121.025926700328	121.125839299988	0.0999125996604561
107385	100	229	stimuli\nonmovNat\crystal\nmn_crystal03.jpg      	1	3	1	nmn_crystal03.jpg    	nonmovNat	5	crystal   	10	crystal03   	102	not_alive	0	still	0	natural 	1	n	0	0    	 	0.0	0	121.17594580026301	121.275856500026	0.0999106997624039
107535	100	230	stimuli\plant2\clover\plant_clover08.jpg         	1	3	1	plant_clover08.jpg   	plant2   	7	clover    	9	clover08    	97	alive    	1	still	0	natural 	1	n	0	0    	 	0.0	0	121.325949800201	121.425846900325	0.0998971001245081
107685	100	231	stimuli\movNat\waves\mn_waves06.jpg              	1	3	1	mn_waves06.jpg       	movNat   	3	waves     	38	waves06     	385	not_alive	0	moves	1	natural 	1	n	0	0    	 	0.0	0	121.475932199974	121.57583660027001	0.0999044002965092
107835	100	232	stimuli\animals2\lemur\animal_lemur08.jpg        	1	3	1	animal_lemur08.jpg   	animals2 	1	lemur     	23	lemur08     	237	alive    	1	moves	1	natural 	1	n	0	0    	 	0.0	0	121.62593140033998	121.72584140021401	0.0999099998734891
107985	100	233	stimuli\plant2\fern\plant_fern08.jpg             	1	3	1	plant_fern08.jpg     	plant2   	7	fern      	14	fern08      	147	alive    	1	still	0	natural 	1	n	0	0    	 	0.0	0	121.77595659997299	121.87584380013901	0.0998872001655399
108135	100	234	stimuli\plant\flower\plant_flower09.jpg          	1	3	1	plant_flower09.jpg   	plant    	6	flower    	16	flower09    	168	alive    	1	still	0	natural 	1	n	0	0    	 	0.0	0	121.925914700143	122.025845600292	0.0999309001490473
108285	100	235	stimuli\movArt\boat\ma_boat10.jpg                	1	3	1	ma_boat10.jpg        	movArt   	2	boat      	2	boat10      	29	not_alive	0	moves	1	artefact	0	n	0	0    	 	0.0	0	122.075929800048	122.17585390014601	0.0999241000972688
108435	100	236	stimuli\plant2\moss\plant_moss02.jpg             	1	3	1	plant_moss02.jpg     	plant2   	7	moss      	25	moss02      	251	alive    	1	still	0	natural 	1	n	0	0    	 	0.0	0	122.225912699942	122.325849100016	0.0999364000745117
108585	100	237	stimuli\animals\cat\animal_cat05.jpg             	1	3	1	animal_cat05.jpg     	animals  	0	cat       	6	cat05       	64	alive    	1	moves	1	natural 	1	n	0	0    	 	0.0	0	122.375919100363	122.475832600147	0.0999134997837245
108735	100	238	stimuli\nonmovArt\mug\nma_mug03.jpg              	1	3	1	nma_mug03.jpg        	nonmovArt	4	mug       	26	mug03       	262	not_alive	0	still	0	artefact	0	n	0	0    	 	0.0	0	122.525931499898	122.625859800261	0.0999283003620803
108885	100	239	stimuli\movNat\waterfall\mn_waterfall04.jpg      	1	3	1	mn_waterfall04.jpg   	movNat   	3	waterfall 	37	waterfall04 	373	not_alive	0	moves	1	natural 	1	n	0	0    	 	0.0	0	122.675929300021	122.77583670010799	0.0999074000865221
114000	100	240	stimuli\plant\tree\plant_tree04.jpg              	1	4	1	plant_tree04.jpg     	plant    	6	tree      	35	tree04      	353	alive    	1	still	0	natural 	1	n	0	0    	 	0.0	0	127.79167370032499	127.891658500303	0.0999847999773919
114150	100	241	stimuli\movArt\helicopter\ma_helicopter10.jpg    	1	4	1	ma_helicopter10.jpg  	movArt   	2	helicopter	19	helicopter10	199	not_alive	0	moves	1	artefact	0	n	0	0    	 	0.0	0	127.941668500192	128.041651400272	0.0999829000793397
114300	100	242	stimuli\movArt\bus\ma_bus07.jpg                  	1	4	1	ma_bus07.jpg         	movArt   	2	bus       	3	bus07       	36	not_alive	0	moves	1	artefact	0	n	0	0    	 	0.0	0	128.091666100081	128.191655900329	0.099989800248295
114450	100	243	stimuli\movNat\waves\mn_waves03.jpg              	1	4	1	mn_waves03.jpg       	movNat   	3	waves     	38	waves03     	382	not_alive	0	moves	1	natural 	1	n	0	0    	 	0.0	0	128.241656800266	128.341661700048	0.10000489978119699
114600	100	244	stimuli\animals\dog\animal_dog03.jpg             	1	4	1	animal_dog03.jpg     	animals  	0	dog       	11	dog03       	112	alive    	1	moves	1	natural 	1	n	0	0    	 	0.0	0	128.391663300339	128.491651100107	0.0999877997674048
114750	100	245	stimuli\movNat\hotspring\mn_hotspring06.jpg      	1	4	1	mn_hotspring06.jpg   	movNat   	3	hotspring 	21	hotspring06 	215	not_alive	0	moves	1	natural 	1	n	0	0    	 	0.0	0	128.541660500225	128.641642100178	0.0999815999530255
114900	100	246	stimuli\animals\eagle\animal_eagle01.jpg         	1	4	1	animal_eagle01.jpg   	animals  	0	eagle     	13	eagle01     	130	alive    	1	moves	1	natural 	1	n	0	0    	 	0.0	0	128.691660400014	128.791650800034	0.0999904000200331
115050	100	247	stimuli\movArt\bus\ma_bus06.jpg                  	1	4	1	ma_bus06.jpg         	movArt   	2	bus       	3	bus06       	35	not_alive	0	moves	1	artefact	0	n	0	0    	 	0.0	0	128.841653600335	128.941653599963	0.0999999996274709
115200	100	248	stimuli\animals\dog\animal_dog10.jpg             	1	4	1	animal_dog10.jpg     	animals  	0	dog       	11	dog10       	119	alive    	1	moves	1	natural 	1	n	0	0    	 	0.0	0	128.991658000275	129.091637300327	0.0999793000519275
115350	100	249	stimuli\movNat\waterfall\mn_waterfall06.jpg      	1	4	1	mn_waterfall06.jpg   	movNat   	3	waterfall 	37	waterfall06 	375	not_alive	0	moves	1	natural 	1	n	0	0    	 	0.0	0	129.141657600179	129.241638900246	0.0999813000671565
115500	100	250	stimuli\animals2\tiger\animal_tiger05.jpg        	1	4	1	animal_tiger05.jpg   	animals2 	1	tiger     	33	tiger05     	334	alive    	1	moves	1	natural 	1	n	0	0    	 	0.0	0	129.291653700173	129.391642100178	0.0999884000048041
115650	100	251	stimuli\movNat\river\mn_river03.jpg              	1	4	1	mn_river03.jpg       	movNat   	3	river     	29	river03     	292	not_alive	0	moves	1	natural 	1	n	0	0    	 	0.0	0	129.441644200124	129.541640399955	0.0999961998313665
115800	100	252	stimuli\movArt\car\ma_car02.jpg                  	1	4	1	ma_car02.jpg         	movArt   	2	car       	5	car02       	51	not_alive	0	moves	1	artefact	0	n	0	0    	 	0.0	0	129.59165049996201	129.691638800316	0.0999883003532886
115950	100	253	stimuli\nonmovNat\cliff\nmn_cliff06.jpg          	1	4	1	nmn_cliff06.jpg      	nonmovNat	5	cliff     	7	cliff06     	75	not_alive	0	still	0	natural 	1	n	0	0    	 	0.0	0	129.741649300326	129.841631300282	0.0999819999560713
116100	100	254	stimuli\nonmovNat\crystal\nmn_crystal10.jpg      	1	4	1	nmn_crystal10.jpg    	nonmovNat	5	crystal   	10	crystal10   	109	not_alive	0	still	0	natural 	1	n	0	0    	 	0.0	0	129.891648100223	129.991639200132	0.0999910999089479
116250	100	255	stimuli\plant2\palmtree\plant_palmtree05.jpg     	1	4	1	plant_palmtree05.jpg 	plant2   	7	palmtree  	27	palmtree05  	274	alive    	1	still	0	natural 	1	n	0	0    	 	0.0	0	130.04163970006599	130.141634600237	0.0999949001707136
116400	100	256	stimuli\movArt\boat\ma_boat07.jpg                	1	4	1	ma_boat07.jpg        	movArt   	2	boat      	2	boat07      	26	not_alive	0	moves	1	artefact	0	n	0	0    	 	0.0	0	130.191643000115	130.291635199916	0.0999921998009085
116550	100	257	stimuli\movNat\river\mn_river06.jpg              	1	4	1	mn_river06.jpg       	movNat   	3	river     	29	river06     	295	not_alive	0	moves	1	natural 	1	n	1	0    	 	0.0	0	130.341641600244	130.441625900101	0.0999842998571694
116700	100	258	stimuli\plant\vine\plant_vine04.jpg              	1	4	1	plant_vine04.jpg     	plant    	6	vine      	36	vine04      	363	alive    	1	still	0	natural 	1	n	0	0    	 	0.0	0	130.491640199907	130.591629399918	0.0999892000108957
116850	100	259	stimuli\movNat\hotspring\mn_hotspring04.jpg      	1	4	1	mn_hotspring04.jpg   	movNat   	3	hotspring 	21	hotspring04 	213	not_alive	0	moves	1	natural 	1	n	0	1    	f	0.292114299722016	1	130.64163150033002	130.74162829993298	0.0999967996031046
117000	100	260	stimuli\animals2\lemur\animal_lemur05.jpg        	1	4	1	animal_lemur05.jpg   	animals2 	1	lemur     	23	lemur05     	234	alive    	1	moves	1	natural 	1	n	0	0    	 	0.0	0	130.791638799943	130.891628500074	0.0999897001311183
117150	100	261	stimuli\movArt\train\ma_train09.jpg              	1	4	1	ma_train09.jpg       	movArt   	2	train     	34	train09     	348	not_alive	0	moves	1	artefact	0	n	0	0    	 	0.0	0	130.941645999905	131.04161910014201	0.0999731002375483
117300	100	262	stimuli\plant\grass\plant_grass08.jpg            	1	4	1	plant_grass08.jpg    	plant    	6	grass     	17	grass08     	177	alive    	1	still	0	natural 	1	n	0	0    	 	0.0	0	131.091633399948	131.191624000203	0.0999906002543866
117450	100	263	stimuli\animals\cat\animal_cat03.jpg             	1	4	1	animal_cat03.jpg     	animals  	0	cat       	6	cat03       	62	alive    	1	moves	1	natural 	1	n	0	0    	 	0.0	0	131.241623400245	131.341623700224	0.10000029997900099
117600	100	264	stimuli\animals\dolphin\animal_dolphin08.jpg     	1	4	1	animal_dolphin08.jpg 	animals  	0	dolphin   	12	dolphin08   	127	alive    	1	moves	1	natural 	1	n	0	0    	 	0.0	0	131.391634600237	131.491619900335	0.0999853000976145
117750	100	265	stimuli\plant2\clover\plant_clover01.jpg         	1	4	1	plant_clover01.jpg   	plant2   	7	clover    	9	clover01    	90	alive    	1	still	0	natural 	1	n	0	0    	 	0.0	0	131.54163310024902	131.641611900181	0.099978799931705
117900	100	266	stimuli\animals\cat\animal_cat10.jpg             	1	4	1	animal_cat10.jpg     	animals  	0	cat       	6	cat10       	69	alive    	1	moves	1	natural 	1	n	0	0    	 	0.0	0	131.691627300344	131.79161450034	0.0999871999956667
118050	100	267	stimuli\animals2\tiger\animal_tiger02.jpg        	1	4	1	animal_tiger02.jpg   	animals2 	1	tiger     	33	tiger02     	331	alive    	1	moves	1	natural 	1	n	0	0    	 	0.0	0	131.84161780029498	131.941617300268	0.0999994999729096
118200	100	268	stimuli\nonmovArt\mug\nma_mug04.jpg              	1	4	1	nma_mug04.jpg        	nonmovArt	4	mug       	26	mug04       	263	not_alive	0	still	0	artefact	0	n	0	0    	 	0.0	0	131.991626699921	132.091615700163	0.0999890002422034
118350	100	269	stimuli\nonmovArt\headphones\nma_headphones06.jpg	1	4	1	nma_headphones06.jpg 	nonmovArt	4	headphones	18	headphones06	185	not_alive	0	still	0	artefact	0	n	0	0    	 	0.0	0	132.141621400137	132.24160710023702	0.0999857001006603
118500	100	270	stimuli\animals2\tiger\animal_tiger03.jpg        	1	4	1	animal_tiger03.jpg   	animals2 	1	tiger     	33	tiger03     	332	alive    	1	moves	1	natural 	1	n	0	0    	 	0.0	0	132.291622499935	132.391609900165	0.0999874002300202
118650	100	271	stimuli\animals2\whale\animal_whale04.jpg        	1	4	1	animal_whale04.jpg   	animals2 	1	whale     	39	whale04     	393	alive    	1	moves	1	natural 	1	n	0	0    	 	0.0	0	132.44161690026502	132.541608700063	0.0999917997978627
118800	100	272	stimuli\plant\cactus\plant_cactus10.jpg          	1	4	1	plant_cactus10.jpg   	plant    	6	cactus    	4	cactus10    	49	alive    	1	still	0	natural 	1	n	0	0    	 	0.0	0	132.591614200268	132.691654900089	0.100040699820966
118950	100	273	stimuli\nonmovArt\headphones\nma_headphones09.jpg	1	4	1	nma_headphones09.jpg 	nonmovArt	4	headphones	18	headphones09	188	not_alive	0	still	0	artefact	0	n	0	0    	 	0.0	0	132.74161630030702	132.841596000362	0.0999797000549733
119100	100	274	stimuli\plant\flower\plant_flower10.jpg          	1	4	1	plant_flower10.jpg   	plant    	6	flower    	16	flower10    	169	alive    	1	still	0	natural 	1	n	0	0    	 	0.0	0	132.891615500208	132.991601600312	0.0999861001037061
119250	100	275	stimuli\animals2\lemur\animal_lemur03.jpg        	1	4	1	animal_lemur03.jpg   	animals2 	1	lemur     	23	lemur03     	232	alive    	1	moves	1	natural 	1	n	0	0    	 	0.0	0	133.041606999934	133.141606099904	0.0999990999698638
119400	100	276	stimuli\animals\dolphin\animal_dolphin01.jpg     	1	4	1	animal_dolphin01.jpg 	animals  	0	dolphin   	12	dolphin01   	120	alive    	1	moves	1	natural 	1	n	1	0    	 	0.0	0	133.19161010021298	133.291599400341	0.0999893001280725
119550	100	277	stimuli\plant\vine\plant_vine05.jpg              	1	4	1	plant_vine05.jpg     	plant    	6	vine      	36	vine05      	364	alive    	1	still	0	natural 	1	n	0	0    	 	0.0	0	133.341614299919	133.441594100092	0.0999798001721501
119700	100	278	stimuli\plant\flower\plant_flower10.jpg          	1	4	1	plant_flower10.jpg   	plant    	6	flower    	16	flower10    	169	alive    	1	still	0	natural 	1	n	0	1    	f	0.292102599982172	1	133.491607900243	133.591599199921	0.0999912996776402
119850	100	279	stimuli\movNat\waves\mn_waves07.jpg              	1	4	1	mn_waves07.jpg       	movNat   	3	waves     	38	waves07     	386	not_alive	0	moves	1	natural 	1	n	0	0    	 	0.0	0	133.641598300077	133.74159769993298	0.0999993998557329
120000	100	280	stimuli\animals\eagle\animal_eagle01.jpg         	1	4	1	animal_eagle01.jpg   	animals  	0	eagle     	13	eagle01     	130	alive    	1	moves	1	natural 	1	n	0	0    	 	0.0	0	133.791605900042	133.89159410027798	0.0999882002361118
120150	100	281	stimuli\plant2\clover\plant_clover01.jpg         	1	4	1	plant_clover01.jpg   	plant2   	7	clover    	9	clover01    	90	alive    	1	still	0	natural 	1	n	0	0    	 	0.0	0	133.941603300162	134.041584200226	0.0999809000641107
120300	100	282	stimuli\nonmovNat\sand\nmn_sand06.jpg            	1	4	1	nmn_sand06.jpg       	nonmovNat	5	sand      	31	sand06      	315	not_alive	0	still	0	natural 	1	n	0	0    	 	0.0	0	134.091598700266	134.19159130007	0.0999925998039543
120450	100	283	stimuli\plant2\lemontree\plant_lemontree07.jpg   	1	4	1	plant_lemontree07.jpg	plant2   	7	lemontree 	22	lemontree07 	226	alive    	1	still	0	natural 	1	n	0	0    	 	0.0	0	134.241593299899	134.341590600088	0.0999973001889884
120600	100	284	stimuli\movArt\train\ma_train04.jpg              	1	4	1	ma_train04.jpg       	movArt   	2	train     	34	train04     	343	not_alive	0	moves	1	artefact	0	n	0	0    	 	0.0	0	134.391599300317	134.491590999998	0.099991699680686
120750	100	285	stimuli\movNat\fire\mn_fire05.jpg                	1	4	1	mn_fire05.jpg        	movNat   	3	fire      	15	fire05      	154	not_alive	0	moves	1	natural 	1	n	0	0    	 	0.0	0	134.54159720009199	134.641578400042	0.0999811999499797
120900	100	286	stimuli\movArt\train\ma_train07.jpg              	1	4	1	ma_train07.jpg       	movArt   	2	train     	34	train07     	346	not_alive	0	moves	1	artefact	0	n	0	0    	 	0.0	0	134.69159570010402	134.79158340022	0.0999877001158893
121050	100	287	stimuli\nonmovArt\mug\nma_mug06.jpg              	1	4	1	nma_mug06.jpg        	nonmovArt	4	mug       	26	mug06       	265	not_alive	0	still	0	artefact	0	n	0	0    	 	0.0	0	134.841588800307	134.941585999914	0.0999971996061504
121200	100	288	stimuli\nonmovArt\headphones\nma_headphones06.jpg	1	4	1	nma_headphones06.jpg 	nonmovArt	4	headphones	18	headphones06	185	not_alive	0	still	0	artefact	0	n	0	0    	 	0.0	0	134.99159310013098	135.091582200024	0.0999890998937189
121350	100	289	stimuli\plant2\palmtree\plant_palmtree01.jpg     	1	4	1	plant_palmtree01.jpg 	plant2   	7	palmtree  	27	palmtree01  	270	alive    	1	still	0	natural 	1	n	0	0    	 	0.0	0	135.141592900269	135.241575000342	0.0999821000732481
121500	100	290	stimuli\animals2\bee\animal_bee04.jpg            	1	4	1	animal_bee04.jpg     	animals2 	1	bee       	0	bee04       	3	alive    	1	moves	1	natural 	1	n	0	0    	 	0.0	0	135.29158740025	135.391577600036	0.0999901997856795
121650	100	291	stimuli\animals\eagle\animal_eagle10.jpg         	1	4	1	animal_eagle10.jpg   	animals  	0	eagle     	13	eagle10     	139	alive    	1	moves	1	natural 	1	n	0	0    	 	0.0	0	135.44158169999702	135.541579000186	0.0999973001889884
121800	100	292	stimuli\movArt\boat\ma_boat01.jpg                	1	4	1	ma_boat01.jpg        	movArt   	2	boat      	2	boat01      	20	not_alive	0	moves	1	artefact	0	n	0	0    	 	0.0	0	135.591583800036	135.691576300189	0.0999925001524388
121950	100	293	stimuli\nonmovArt\clothespeg\nma_clothespeg04.jpg	1	4	1	nma_clothespeg04.jpg 	nonmovArt	4	clothespeg	8	clothespeg04	83	not_alive	0	still	0	artefact	0	n	0	0    	 	0.0	0	135.741582500283	135.841564800125	0.0999822998419404
122100	100	294	stimuli\plant\grass\plant_grass02.jpg            	1	4	1	plant_grass02.jpg    	plant    	6	grass     	17	grass02     	171	alive    	1	still	0	natural 	1	n	0	0    	 	0.0	0	135.891579600051	135.99157340033	0.099993800278753
122250	100	295	stimuli\plant2\moss\plant_moss10.jpg             	1	4	1	plant_moss10.jpg     	plant2   	7	moss      	25	moss10      	259	alive    	1	still	0	natural 	1	n	0	0    	 	0.0	0	136.04157399991502	136.141571300104	0.0999973001889884
122400	100	296	stimuli\nonmovArt\mug\nma_mug06.jpg              	1	4	1	nma_mug06.jpg        	nonmovArt	4	mug       	26	mug06       	265	not_alive	0	still	0	artefact	0	n	0	0    	 	0.0	0	136.191580899991	136.29156990023301	0.0999890002422034
122550	100	297	stimuli\nonmovArt\clothespeg\nma_clothespeg10.jpg	1	4	1	nma_clothespeg10.jpg 	nonmovArt	4	clothespeg	8	clothespeg10	89	not_alive	0	still	0	artefact	0	n	0	0    	 	0.0	0	136.341577799991	136.441558500286	0.0999807002954185
122700	100	298	stimuli\nonmovArt\bench\nma_bench04.jpg          	1	4	1	nma_bench04.jpg      	nonmovArt	4	bench     	1	bench04     	13	not_alive	0	still	0	artefact	0	n	1	0    	 	0.0	0	136.49157380033301	136.591562500224	0.0999886998906731
122850	100	299	stimuli\movNat\river\mn_river03.jpg              	1	4	1	mn_river03.jpg       	movNat   	3	river     	29	river03     	292	not_alive	0	moves	1	natural 	1	n	0	1    	f	0.257396199740469	1	136.641605800018	136.741564400028	0.0999586000107228
123000	100	300	stimuli\plant2\lemontree\plant_lemontree09.jpg   	1	4	1	plant_lemontree09.jpg	plant2   	7	lemontree 	22	lemontree09 	228	alive    	1	still	0	natural 	1	n	0	0    	 	0.0	0	136.791574100032	136.891563100275	0.0999890002422034
123150	100	301	stimuli\plant2\fern\plant_fern06.jpg             	1	4	1	plant_fern06.jpg     	plant2   	7	fern      	14	fern06      	145	alive    	1	still	0	natural 	1	n	0	0    	 	0.0	0	136.94158080033998	137.041555000003	0.0999741996638476
123300	100	302	stimuli\plant2\moss\plant_moss01.jpg             	1	4	1	plant_moss01.jpg     	plant2   	7	moss      	25	moss01      	250	alive    	1	still	0	natural 	1	n	0	0    	 	0.0	0	137.091572100297	137.191559399944	0.0999872996471822
123450	100	303	stimuli\movNat\waterfall\mn_waterfall09.jpg      	1	4	1	mn_waterfall09.jpg   	movNat   	3	waterfall 	37	waterfall09 	378	not_alive	0	moves	1	natural 	1	n	0	0    	 	0.0	0	137.241563099902	137.341553300153	0.0999902002513408
123600	100	304	stimuli\nonmovArt\clothespeg\nma_clothespeg09.jpg	1	4	1	nma_clothespeg09.jpg 	nonmovArt	4	clothespeg	8	clothespeg09	88	not_alive	0	still	0	artefact	0	n	0	0    	 	0.0	0	137.39156959997499	137.491557199974	0.0999875999987125
123750	100	305	stimuli\nonmovNat\sand\nmn_sand06.jpg            	1	4	1	nmn_sand06.jpg       	nonmovNat	5	sand      	31	sand06      	315	not_alive	0	still	0	natural 	1	n	0	0    	 	0.0	0	137.541565100197	137.641548099928	0.0999829997308552
123900	100	306	stimuli\nonmovArt\bench\nma_bench10.jpg          	1	4	1	nma_bench10.jpg      	nonmovArt	4	bench     	1	bench10     	19	not_alive	0	still	0	artefact	0	n	0	0    	 	0.0	0	137.691563600209	137.791552900337	0.0999893001280725
124050	100	307	stimuli\nonmovNat\rock\nmn_rock01.jpg            	1	4	1	nmn_rock01.jpg       	nonmovNat	5	rock      	30	rock01      	300	not_alive	0	still	0	natural 	1	n	0	0    	 	0.0	0	137.841555200052	137.941558100283	0.10000290023163
124200	100	308	stimuli\plant\cactus\plant_cactus10.jpg          	1	4	1	plant_cactus10.jpg   	plant    	6	cactus    	4	cactus10    	49	alive    	1	still	0	natural 	1	n	0	0    	 	0.0	0	137.99154980014998	138.09154990036	0.10000010021030901
124350	100	309	stimuli\nonmovNat\cliff\nmn_cliff02.jpg          	1	4	1	nmn_cliff02.jpg      	nonmovNat	5	cliff     	7	cliff02     	71	not_alive	0	still	0	natural 	1	n	0	0    	 	0.0	0	138.141559000127	138.241540700197	0.0999817000702023
124500	100	310	stimuli\plant\flower\plant_flower05.jpg          	1	4	1	plant_flower05.jpg   	plant    	6	flower    	16	flower05    	164	alive    	1	still	0	natural 	1	n	0	0    	 	0.0	0	138.29155750013902	138.391544200014	0.0999866998754441
124650	100	311	stimuli\animals\dolphin\animal_dolphin07.jpg     	1	4	1	animal_dolphin07.jpg 	animals  	0	dolphin   	12	dolphin07   	126	alive    	1	moves	1	natural 	1	n	0	0    	 	0.0	0	138.441554100253	138.542335900012	0.100781799759716
124801	100	312	stimuli\plant\tree\plant_tree10.jpg              	1	4	1	plant_tree10.jpg     	plant    	6	tree      	35	tree10      	359	alive    	1	still	0	natural 	1	n	0	0    	 	0.0	0	138.59242610028	138.692343400326	0.0999173000454902
124951	100	313	stimuli\plant2\fern\plant_fern06.jpg             	1	4	1	plant_fern06.jpg     	plant2   	7	fern      	14	fern06      	145	alive    	1	still	0	natural 	1	n	0	0    	 	0.0	0	138.742420500144	138.842294500209	0.0998740000650286
125101	100	314	stimuli\plant2\clover\plant_clover07.jpg         	1	4	1	plant_clover07.jpg   	plant2   	7	clover    	9	clover07    	96	alive    	1	still	0	natural 	1	n	0	0    	 	0.0	0	138.892409299966	138.992346700281	0.0999374003149569
125251	100	315	stimuli\movArt\helicopter\ma_helicopter02.jpg    	1	4	1	ma_helicopter02.jpg  	movArt   	2	helicopter	19	helicopter02	191	not_alive	0	moves	1	artefact	0	n	0	0    	 	0.0	0	139.042380100116	139.142339000013	0.0999588998965919
125401	100	316	stimuli\nonmovNat\shell\nmn_shell04.jpg          	1	4	1	nmn_shell04.jpg      	nonmovNat	5	shell     	32	shell04     	323	not_alive	0	still	0	natural 	1	n	0	0    	 	0.0	0	139.19242920028	139.292323600035	0.099894399754703
125551	100	317	stimuli\movArt\bus\ma_bus10.jpg                  	1	4	1	ma_bus10.jpg         	movArt   	2	bus       	3	bus10       	39	not_alive	0	moves	1	artefact	0	n	0	0    	 	0.0	0	139.342420000117	139.442293799948	0.0998737998306751
125701	100	318	stimuli\plant2\fern\plant_fern01.jpg             	1	4	1	plant_fern01.jpg     	plant2   	7	fern      	14	fern01      	140	alive    	1	still	0	natural 	1	n	0	0    	 	0.0	0	139.49240310024499	139.592323200312	0.0999201000668108
125851	100	319	stimuli\nonmovArt\lock\nma_lock01.jpg            	1	4	1	nma_lock01.jpg       	nonmovArt	4	lock      	24	lock01      	240	not_alive	0	still	0	artefact	0	n	0	0    	 	0.0	0	139.64238240011002	139.742335500196	0.0999531000852584
133601	100	320	stimuli\nonmovNat\sand\nmn_sand09.jpg            	1	5	1	nmn_sand09.jpg       	nonmovNat	5	sand      	31	sand09      	318	not_alive	0	still	0	natural 	1	n	0	0    	 	0.0	0	147.392349600326	147.492250100244	0.0999004999175667
133751	100	321	stimuli\nonmovNat\shell\nmn_shell01.jpg          	1	5	1	nmn_shell01.jpg      	nonmovNat	5	shell     	32	shell01     	320	not_alive	0	still	0	natural 	1	n	0	0    	 	0.0	0	147.542325200047	147.64224780025	0.0999226002022624
133901	100	322	stimuli\animals2\pigeon\animal_pigeon10.jpg      	1	5	1	animal_pigeon10.jpg  	animals2 	1	pigeon    	28	pigeon10    	289	alive    	1	moves	1	natural 	1	n	0	0    	 	0.0	0	147.692305400036	147.792238099966	0.0999326999299228
134051	100	323	stimuli\movNat\waterfall\mn_waterfall01.jpg      	1	5	1	mn_waterfall01.jpg   	movNat   	3	waterfall 	37	waterfall01 	370	not_alive	0	moves	1	natural 	1	n	0	0    	 	0.0	0	147.842337000184	147.942241500132	0.0999044999480247
134201	100	324	stimuli\movNat\waves\mn_waves05.jpg              	1	5	1	mn_waves05.jpg       	movNat   	3	waves     	38	waves05     	384	not_alive	0	moves	1	natural 	1	n	0	0    	 	0.0	0	147.992320500314	148.09224390005699	0.0999233997426927
134351	100	325	stimuli\plant2\palmtree\plant_palmtree08.jpg     	1	5	1	plant_palmtree08.jpg 	plant2   	7	palmtree  	27	palmtree08  	277	alive    	1	still	0	natural 	1	n	0	0    	 	0.0	0	148.142334900331	148.242234700359	0.0998998000286519
134501	100	326	stimuli\animals\horse\animal_horse01.jpg         	1	5	1	animal_horse01.jpg   	animals  	0	horse     	20	horse01     	200	alive    	1	moves	1	natural 	1	n	0	0    	 	0.0	0	148.292315500323	148.392229699995	0.0999141996726393
134651	100	327	stimuli\nonmovNat\crystal\nmn_crystal02.jpg      	1	5	1	nmn_crystal02.jpg    	nonmovNat	5	crystal   	10	crystal02   	101	not_alive	0	still	0	natural 	1	n	0	0    	 	0.0	0	148.44231310021098	148.54231079993798	0.0999976997263729
134801	100	328	stimuli\nonmovArt\lock\nma_lock10.jpg            	1	5	1	nma_lock10.jpg       	nonmovArt	4	lock      	24	lock10      	249	not_alive	0	still	0	artefact	0	n	0	0    	 	0.0	0	148.59244800033002	148.69233119999998	0.0998831996694207
134951	100	329	stimuli\animals\horse\animal_horse10.jpg         	1	5	1	animal_horse10.jpg   	animals  	0	horse     	20	horse10     	209	alive    	1	moves	1	natural 	1	n	0	0    	 	0.0	0	148.742346100044	148.842218700331	0.099872600287199
135101	100	330	stimuli\plant2\lemontree\plant_lemontree01.jpg   	1	5	1	plant_lemontree01.jpg	plant2   	7	lemontree 	22	lemontree01 	220	alive    	1	still	0	natural 	1	n	0	0    	 	0.0	0	148.892314400058	148.992233800236	0.09991940017789601
135251	100	331	stimuli\plant\grass\plant_grass06.jpg            	1	5	1	plant_grass06.jpg    	plant    	6	grass     	17	grass06     	175	alive    	1	still	0	natural 	1	n	0	0    	 	0.0	0	149.04230750026198	149.142224099953	0.0999165996909141
135401	100	332	stimuli\movArt\helicopter\ma_helicopter08.jpg    	1	5	1	ma_helicopter08.jpg  	movArt   	2	helicopter	19	helicopter08	197	not_alive	0	moves	1	artefact	0	n	0	0    	 	0.0	0	149.192306899931	149.292229200248	0.0999223003163933
135551	100	333	stimuli\animals2\bee\animal_bee09.jpg            	1	5	1	animal_bee09.jpg     	animals2 	1	bee       	0	bee09       	8	alive    	1	moves	1	natural 	1	n	0	0    	 	0.0	0	149.34230370027902	149.442219499964	0.0999157996848225
135701	100	334	stimuli\plant\tree\plant_tree05.jpg              	1	5	1	plant_tree05.jpg     	plant    	6	tree      	35	tree05      	354	alive    	1	still	0	natural 	1	n	0	0    	 	0.0	0	149.49230600008698	149.59221119992398	0.0999051998369395
135851	100	335	stimuli\animals\horse\animal_horse08.jpg         	1	5	1	animal_horse08.jpg   	animals  	0	horse     	20	horse08     	207	alive    	1	moves	1	natural 	1	n	0	0    	 	0.0	0	149.642300200183	149.742216200102	0.0999159999191761
136001	100	336	stimuli\nonmovNat\cliff\nmn_cliff10.jpg          	1	5	1	nmn_cliff10.jpg      	nonmovNat	5	cliff     	7	cliff10     	79	not_alive	0	still	0	natural 	1	n	0	0    	 	0.0	0	149.792282700073	149.892224300187	0.0999416001141071
136151	100	337	stimuli\movArt\boat\ma_boat05.jpg                	1	5	1	ma_boat05.jpg        	movArt   	2	boat      	2	boat05      	24	not_alive	0	moves	1	artefact	0	n	0	0    	 	0.0	0	149.94229350006202	150.042206900194	0.09991340013220901
136301	100	338	stimuli\animals2\lemur\animal_lemur01.jpg        	1	5	1	animal_lemur01.jpg   	animals2 	1	lemur     	23	lemur01     	230	alive    	1	moves	1	natural 	1	n	1	0    	 	0.0	0	150.092292100191	150.192221300211	0.0999292000196874
136451	100	339	stimuli\animals2\whale\animal_whale07.jpg        	1	5	1	animal_whale07.jpg   	animals2 	1	whale     	39	whale07     	396	alive    	1	moves	1	natural 	1	n	0	0    	 	0.0	0	150.242302200291	150.342259500176	0.0999572998844087
136601	100	340	stimuli\plant\vine\plant_vine02.jpg              	1	5	1	plant_vine02.jpg     	plant    	6	vine      	36	vine02      	361	alive    	1	still	0	natural 	1	n	0	1    	f	0.309683199971914	1	150.392306700349	150.492224700283	0.09991799993440499
136751	100	341	stimuli\nonmovNat\rock\nmn_rock06.jpg            	1	5	1	nmn_rock06.jpg       	nonmovNat	5	rock      	30	rock06      	305	not_alive	0	still	0	natural 	1	n	0	0    	 	0.0	0	150.54223430017	150.642082300037	0.0998479998670518
136901	100	342	stimuli\nonmovNat\rock\nmn_rock06.jpg            	1	5	1	nmn_rock06.jpg       	nonmovNat	5	rock      	30	rock06      	305	not_alive	0	still	0	natural 	1	n	0	0    	 	0.0	0	150.69216910004602	150.792089400347	0.0999203003011644
137051	100	343	stimuli\plant\cactus\plant_cactus06.jpg          	1	5	1	plant_cactus06.jpg   	plant    	6	cactus    	4	cactus06    	45	alive    	1	still	0	natural 	1	n	0	0    	 	0.0	0	150.842141800094	150.942228100263	0.100086300168186
137201	100	344	stimuli\movArt\car\ma_car07.jpg                  	1	5	1	ma_car07.jpg         	movArt   	2	car       	5	car07       	56	not_alive	0	moves	1	artefact	0	n	0	0    	 	0.0	0	150.992310200352	151.092192600016	0.0998823996633291
137351	100	345	stimuli\nonmovArt\bench\nma_bench10.jpg          	1	5	1	nma_bench10.jpg      	nonmovArt	4	bench     	1	bench10     	19	not_alive	0	still	0	artefact	0	n	0	0    	 	0.0	0	151.142274199985	151.242218400352	0.0999442003667354
137501	100	346	stimuli\movArt\car\ma_car04.jpg                  	1	5	1	ma_car04.jpg         	movArt   	2	car       	5	car04       	53	not_alive	0	moves	1	artefact	0	n	0	0    	 	0.0	0	151.292284300085	151.392221400049	0.0999370999634266
137651	100	347	stimuli\animals2\bee\animal_bee01.jpg            	1	5	1	animal_bee01.jpg     	animals2 	1	bee       	0	bee01       	0	alive    	1	moves	1	natural 	1	n	0	0    	 	0.0	0	151.44232119992398	151.542212000117	0.0998908001929521
137801	100	348	stimuli\animals2\pigeon\animal_pigeon03.jpg      	1	5	1	animal_pigeon03.jpg  	animals2 	1	pigeon    	28	pigeon03    	282	alive    	1	moves	1	natural 	1	n	0	0    	 	0.0	0	151.592277000193	151.69220430031402	0.0999273001216352
137951	100	349	stimuli\animals2\pigeon\animal_pigeon04.jpg      	1	5	1	animal_pigeon04.jpg  	animals2 	1	pigeon    	28	pigeon04    	283	alive    	1	moves	1	natural 	1	n	0	0    	 	0.0	0	151.74227009993	151.842212300282	0.0999422003515064
138101	100	350	stimuli\plant2\moss\plant_moss04.jpg             	1	5	1	plant_moss04.jpg     	plant2   	7	moss      	25	moss04      	253	alive    	1	still	0	natural 	1	n	0	0    	 	0.0	0	151.89229380013398	151.992197799962	0.0999039998278021
138251	100	351	stimuli\animals2\whale\animal_whale09.jpg        	1	5	1	animal_whale09.jpg   	animals2 	1	whale     	39	whale09     	398	alive    	1	moves	1	natural 	1	n	0	0    	 	0.0	0	152.042279900052	152.14216300007	0.0998831000179052
138401	100	352	stimuli\nonmovNat\shell\nmn_shell01.jpg          	1	5	1	nmn_shell01.jpg      	nonmovNat	5	shell     	32	shell01     	320	not_alive	0	still	0	natural 	1	n	0	0    	 	0.0	0	152.192366300151	152.29223480029	0.0998685001395642
138551	100	353	stimuli\movNat\fire\mn_fire09.jpg                	1	5	1	mn_fire09.jpg        	movNat   	3	fire      	15	fire09      	158	not_alive	0	moves	1	natural 	1	n	0	0    	 	0.0	0	152.342331300024	152.44217770034402	0.0998464003205299
138701	100	354	stimuli\animals\dog\animal_dog01.jpg             	1	5	1	animal_dog01.jpg     	animals  	0	dog       	11	dog01       	110	alive    	1	moves	1	natural 	1	n	0	0    	 	0.0	0	152.49228080036102	152.592183200177	0.099902399815619
138851	100	355	stimuli\movNat\fire\mn_fire07.jpg                	1	5	1	mn_fire07.jpg        	movNat   	3	fire      	15	fire07      	156	not_alive	0	moves	1	natural 	1	n	0	0    	 	0.0	0	152.642284000292	152.74219579994698	0.0999117996543646
139001	100	356	stimuli\nonmovArt\lock\nma_lock01.jpg            	1	5	1	nma_lock01.jpg       	nonmovArt	4	lock      	24	lock01      	240	not_alive	0	still	0	artefact	0	n	0	0    	 	0.0	0	152.792266699951	152.892169100232	0.0999024002812802
139151	100	357	stimuli\animals\cat\animal_cat09.jpg             	1	5	1	animal_cat09.jpg     	animals  	0	cat       	6	cat09       	68	alive    	1	moves	1	natural 	1	n	0	0    	 	0.0	0	152.942274200264	153.042178400327	0.0999042000621557
139301	100	358	stimuli\nonmovNat\crystal\nmn_crystal05.jpg      	1	5	1	nmn_crystal05.jpg    	nonmovNat	5	crystal   	10	crystal05   	104	not_alive	0	still	0	natural 	1	n	0	0    	 	0.0	0	153.092256300151	153.19217800023	0.099921700078994
139451	100	359	stimuli\movNat\hotspring\mn_hotspring08.jpg      	1	5	1	mn_hotspring08.jpg   	movNat   	3	hotspring 	21	hotspring08 	217	not_alive	0	moves	1	natural 	1	n	0	0    	 	0.0	0	153.24225280014798	153.342173800338	0.0999210001900792
139601	100	360	stimuli\animals2\pigeon\animal_pigeon08.jpg      	1	5	1	animal_pigeon08.jpg  	animals2 	1	pigeon    	28	pigeon08    	287	alive    	1	moves	1	natural 	1	n	0	0    	 	0.0	0	153.392254500184	153.49218850024	0.0999340000562369
139751	100	361	stimuli\animals2\whale\animal_whale08.jpg        	1	5	1	animal_whale08.jpg   	animals2 	1	whale     	39	whale08     	397	alive    	1	moves	1	natural 	1	n	0	0    	 	0.0	0	153.542236400302	153.642195700202	0.0999592998996377
139901	100	362	stimuli\nonmovArt\headphones\nma_headphones10.jpg	1	5	1	nma_headphones10.jpg 	nonmovArt	4	headphones	18	headphones10	189	not_alive	0	still	0	artefact	0	n	0	0    	 	0.0	0	153.692290100269	153.792167500127	0.0998773998580873
140051	100	363	stimuli\animals2\bee\animal_bee06.jpg            	1	5	1	animal_bee06.jpg     	animals2 	1	bee       	0	bee06       	5	alive    	1	moves	1	natural 	1	n	0	0    	 	0.0	0	153.842290800065	153.942283899989	0.0999930999241769
140201	100	364	stimuli\movNat\waterfall\mn_waterfall05.jpg      	1	5	1	mn_waterfall05.jpg   	movNat   	3	waterfall 	37	waterfall05 	374	not_alive	0	moves	1	natural 	1	n	0	0    	 	0.0	0	153.992430400103	154.092308700085	0.0998782999813556
140351	100	365	stimuli\movNat\waterfall\mn_waterfall09.jpg      	1	5	1	mn_waterfall09.jpg   	movNat   	3	waterfall 	37	waterfall09 	378	not_alive	0	moves	1	natural 	1	n	0	0    	 	0.0	0	154.142241300084	154.242166399956	0.0999250998720526
140501	100	366	stimuli\animals\cat\animal_cat08.jpg             	1	5	1	animal_cat08.jpg     	animals  	0	cat       	6	cat08       	67	alive    	1	moves	1	natural 	1	n	0	0    	 	0.0	0	154.292248500045	154.392156099901	0.0999075998552143
140651	100	367	stimuli\nonmovArt\bench\nma_bench09.jpg          	1	5	1	nma_bench09.jpg      	nonmovArt	4	bench     	1	bench09     	18	not_alive	0	still	0	artefact	0	n	0	0    	 	0.0	0	154.442287100013	154.54217790020598	0.0998908001929521
140801	100	368	stimuli\plant\grass\plant_grass05.jpg            	1	5	1	plant_grass05.jpg    	plant    	6	grass     	17	grass05     	174	alive    	1	still	0	natural 	1	n	0	0    	 	0.0	0	154.59225710015698	154.692188499961	0.0999313998036086
140951	100	369	stimuli\nonmovNat\cliff\nmn_cliff07.jpg          	1	5	1	nmn_cliff07.jpg      	nonmovNat	5	cliff     	7	cliff07     	76	not_alive	0	still	0	natural 	1	n	0	0    	 	0.0	0	154.74222839996202	154.842166400049	0.0999380000866949
141101	100	370	stimuli\animals\dolphin\animal_dolphin05.jpg     	1	5	1	animal_dolphin05.jpg 	animals  	0	dolphin   	12	dolphin05   	124	alive    	1	moves	1	natural 	1	n	1	0    	 	0.0	0	154.89223340014	154.992178100161	0.0999447000212967
141251	100	371	stimuli\plant\tree\plant_tree07.jpg              	1	5	1	plant_tree07.jpg     	plant    	6	tree      	35	tree07      	356	alive    	1	still	0	natural 	1	n	0	1    	f	0.250113800168037	1	155.0422666003	155.14214490028098	0.0998782999813556
141401	100	372	stimuli\movArt\train\ma_train06.jpg              	1	5	1	ma_train06.jpg       	movArt   	2	train     	34	train06     	345	not_alive	0	moves	1	artefact	0	n	0	0    	 	0.0	0	155.19225610001	155.292153399903	0.0998972998932004
141551	100	373	stimuli\animals2\whale\animal_whale10.jpg        	1	5	1	animal_whale10.jpg   	animals2 	1	whale     	39	whale10     	399	alive    	1	moves	1	natural 	1	n	0	0    	 	0.0	0	155.342243300285	155.442152800038	0.0999094997532665
141701	100	374	stimuli\movNat\hotspring\mn_hotspring06.jpg      	1	5	1	mn_hotspring06.jpg   	movNat   	3	hotspring 	21	hotspring06 	215	not_alive	0	moves	1	natural 	1	n	0	0    	 	0.0	0	155.4922660999	155.59215130005	0.099885200150311
141851	100	375	stimuli\animals\horse\animal_horse07.jpg         	1	5	1	animal_horse07.jpg   	animals  	0	horse     	20	horse07     	206	alive    	1	moves	1	natural 	1	n	0	0    	 	0.0	0	155.642237000167	155.742252700031	0.100015699863434
142001	100	376	stimuli\animals\dolphin\animal_dolphin09.jpg     	1	5	1	animal_dolphin09.jpg 	animals  	0	dolphin   	12	dolphin09   	128	alive    	1	moves	1	natural 	1	n	0	0    	 	0.0	0	155.792413500138	155.892228300218	0.0998148000799119
142151	100	377	stimuli\nonmovArt\mug\nma_mug01.jpg              	1	5	1	nma_mug01.jpg        	nonmovArt	4	mug       	26	mug01       	260	not_alive	0	still	0	artefact	0	n	0	0    	 	0.0	0	155.94223170029	156.042152300011	0.0999205997213721
142301	100	378	stimuli\plant2\moss\plant_moss03.jpg             	1	5	1	plant_moss03.jpg     	plant2   	7	moss      	25	moss03      	252	alive    	1	still	0	natural 	1	n	0	0    	 	0.0	0	156.092231499963	156.19215210015	0.0999206001870334
142451	100	379	stimuli\movArt\bus\ma_bus03.jpg                  	1	5	1	ma_bus03.jpg         	movArt   	2	bus       	3	bus03       	32	not_alive	0	moves	1	artefact	0	n	0	0    	 	0.0	0	156.24222780019	156.342145400122	0.0999175999313592
142601	100	380	stimuli\plant\flower\plant_flower06.jpg          	1	5	1	plant_flower06.jpg   	plant    	6	flower    	16	flower06    	165	alive    	1	still	0	natural 	1	n	0	0    	 	0.0	0	156.392225500196	156.492142800242	0.0999173000454902
142751	100	381	stimuli\movArt\car\ma_car02.jpg                  	1	5	1	ma_car02.jpg         	movArt   	2	car       	5	car02       	51	not_alive	0	moves	1	artefact	0	n	0	0    	 	0.0	0	156.542252900079	156.642173100263	0.0999202001839876
142901	100	382	stimuli\movNat\hotspring\mn_hotspring07.jpg      	1	5	1	mn_hotspring07.jpg   	movNat   	3	hotspring 	21	hotspring07 	216	not_alive	0	moves	1	natural 	1	n	0	0    	 	0.0	0	156.692220100202	156.79216139996402	0.0999412997625768
143051	100	383	stimuli\nonmovArt\headphones\nma_headphones07.jpg	1	5	1	nma_headphones07.jpg 	nonmovArt	4	headphones	18	headphones07	186	not_alive	0	still	0	artefact	0	n	0	0    	 	0.0	0	156.84223730024	156.942158100195	0.0999207999557256
143201	100	384	stimuli\plant\tree\plant_tree08.jpg              	1	5	1	plant_tree08.jpg     	plant    	6	tree      	35	tree08      	357	alive    	1	still	0	natural 	1	n	0	0    	 	0.0	0	156.992228100076	157.09213489992501	0.0999067998491227
143351	100	385	stimuli\animals2\tiger\animal_tiger07.jpg        	1	5	1	animal_tiger07.jpg   	animals2 	1	tiger     	33	tiger07     	336	alive    	1	moves	1	natural 	1	n	0	0    	 	0.0	0	157.142227200326	157.24215169996	0.0999244996346533
143501	100	386	stimuli\nonmovArt\mug\nma_mug10.jpg              	1	5	1	nma_mug10.jpg        	nonmovArt	4	mug       	26	mug10       	269	not_alive	0	still	0	artefact	0	n	0	0    	 	0.0	0	157.292243200354	157.39213440008498	0.0998911997303366
143651	100	387	stimuli\plant2\lemontree\plant_lemontree05.jpg   	1	5	1	plant_lemontree05.jpg	plant2   	7	lemontree 	22	lemontree05 	224	alive    	1	still	0	natural 	1	n	0	0    	 	0.0	0	157.44222680013598	157.542219500057	0.0999926999211311
143801	100	388	stimuli\movNat\fire\mn_fire10.jpg                	1	5	1	mn_fire10.jpg        	movNat   	3	fire      	15	fire10      	159	not_alive	0	moves	1	natural 	1	n	0	0    	 	0.0	0	157.592417099979	157.69213980017201	0.0997227001935243
143951	100	389	stimuli\nonmovArt\mug\nma_mug04.jpg              	1	5	1	nma_mug04.jpg        	nonmovArt	4	mug       	26	mug04       	263	not_alive	0	still	0	artefact	0	n	0	0    	 	0.0	0	157.742208300158	157.84213040024	0.0999221000820398
144101	100	390	stimuli\movArt\boat\ma_boat08.jpg                	1	5	1	ma_boat08.jpg        	movArt   	2	boat      	2	boat08      	27	not_alive	0	moves	1	artefact	0	n	0	0    	 	0.0	0	157.892218300141	157.992123400327	0.09990510018542402
144251	100	391	stimuli\animals2\lemur\animal_lemur10.jpg        	1	5	1	animal_lemur10.jpg   	animals2 	1	lemur     	23	lemur10     	239	alive    	1	moves	1	natural 	1	n	0	0    	 	0.0	0	158.042195700109	158.142119800206	0.0999241000972688
144401	100	392	stimuli\movArt\car\ma_car09.jpg                  	1	5	1	ma_car09.jpg         	movArt   	2	car       	5	car09       	58	not_alive	0	moves	1	artefact	0	n	0	0    	 	0.0	0	158.19222250022	158.292130399961	0.0999078997410833
144551	100	393	stimuli\movNat\river\mn_river05.jpg              	1	5	1	mn_river05.jpg       	movNat   	3	river     	29	river05     	294	not_alive	0	moves	1	natural 	1	n	0	0    	 	0.0	0	158.342240199912	158.44214110029898	0.0999009003862738
144701	100	394	stimuli\nonmovNat\cliff\nmn_cliff06.jpg          	1	5	1	nmn_cliff06.jpg      	nonmovNat	5	cliff     	7	cliff06     	75	not_alive	0	still	0	natural 	1	n	0	1    	f	0.0	0	158.492230300326	158.59212590009	0.0998955997638404
144851	100	395	stimuli\plant\flower\plant_flower05.jpg          	1	5	1	plant_flower05.jpg   	plant    	6	flower    	16	flower05    	164	alive    	1	still	0	natural 	1	n	0	0    	 	0.0	0	158.642201000359	158.742148300167	0.0999472998082637
145001	100	396	stimuli\nonmovNat\shell\nmn_shell10.jpg          	1	5	1	nmn_shell10.jpg      	nonmovNat	5	shell     	32	shell10     	329	not_alive	0	still	0	natural 	1	n	0	0    	 	0.0	0	158.792224100325	158.892129800282	0.0999056999571621
145151	100	397	stimuli\plant\cactus\plant_cactus07.jpg          	1	5	1	plant_cactus07.jpg   	plant    	6	cactus    	4	cactus07    	46	alive    	1	still	0	natural 	1	n	0	0    	 	0.0	0	158.942218699958	159.04213880002501	0.0999201000668108
145301	100	398	stimuli\animals2\pigeon\animal_pigeon01.jpg      	1	5	1	animal_pigeon01.jpg  	animals2 	1	pigeon    	28	pigeon01    	280	alive    	1	moves	1	natural 	1	n	0	0    	 	0.0	0	159.092194400262	159.192106100265	0.0999117000028491
145451	100	399	stimuli\animals\dog\animal_dog08.jpg             	1	5	1	animal_dog08.jpg     	animals  	0	dog       	11	dog08       	117	alive    	1	moves	1	natural 	1	n	0	0    	 	0.0	0	159.242287100293	159.342214399949	0.0999272996559739
148418	100	400	stimuli\nonmovArt\lock\nma_lock06.jpg            	1	6	1	nma_lock06.jpg       	nonmovArt	4	lock      	24	lock06      	245	not_alive	0	still	0	artefact	0	n	0	0    	 	0.0	0	162.20889060013002	162.30875980015801	0.0998692000284791
148568	100	401	stimuli\movNat\fire\mn_fire05.jpg                	1	6	1	mn_fire05.jpg        	movNat   	3	fire      	15	fire05      	154	not_alive	0	moves	1	natural 	1	n	0	0    	 	0.0	0	162.358832499944	162.458737100009	0.0999046000652015
148718	100	402	stimuli\nonmovNat\cliff\nmn_cliff09.jpg          	1	6	1	nmn_cliff09.jpg      	nonmovNat	5	cliff     	7	cliff09     	78	not_alive	0	still	0	natural 	1	n	0	0    	 	0.0	0	162.508841699921	162.608745600097	0.0999039001762867
148868	100	403	stimuli\nonmovArt\clothespeg\nma_clothespeg04.jpg	1	6	1	nma_clothespeg04.jpg 	nonmovArt	4	clothespeg	8	clothespeg04	83	not_alive	0	still	0	artefact	0	n	0	0    	 	0.0	0	162.658828400075	162.75874370010598	0.0999153000302612
149018	100	404	stimuli\plant\vine\plant_vine02.jpg              	1	6	1	plant_vine02.jpg     	plant    	6	vine      	36	vine02      	361	alive    	1	still	0	natural 	1	n	0	0    	 	0.0	0	162.808832300361	162.90880120033398	0.0999688999727368
149168	100	405	stimuli\nonmovArt\clothespeg\nma_clothespeg07.jpg	1	6	1	nma_clothespeg07.jpg 	nonmovArt	4	clothespeg	8	clothespeg07	86	not_alive	0	still	0	artefact	0	n	0	0    	 	0.0	0	162.958834200166	163.058752899989	0.0999186998233199
149318	100	406	stimuli\nonmovNat\sand\nmn_sand08.jpg            	1	6	1	nmn_sand08.jpg       	nonmovNat	5	sand      	31	sand08      	317	not_alive	0	still	0	natural 	1	n	0	0    	 	0.0	0	163.10882230009898	163.208741399925	0.0999190998263657
149468	100	407	stimuli\plant2\palmtree\plant_palmtree09.jpg     	1	6	1	plant_palmtree09.jpg 	plant2   	7	palmtree  	27	palmtree09  	278	alive    	1	still	0	natural 	1	n	0	0    	 	0.0	0	163.258833900094	163.358743400313	0.0999095002189278
149618	100	408	stimuli\animals2\bee\animal_bee05.jpg            	1	6	1	animal_bee05.jpg     	animals2 	1	bee       	0	bee05       	4	alive    	1	moves	1	natural 	1	n	0	0    	 	0.0	0	163.408822699916	163.508737500291	0.0999148003757
149768	100	409	stimuli\nonmovNat\sand\nmn_sand08.jpg            	1	6	1	nmn_sand08.jpg       	nonmovNat	5	sand      	31	sand08      	317	not_alive	0	still	0	natural 	1	n	0	0    	 	0.0	0	163.558829400223	163.658741100226	0.0999117000028491
149918	100	410	stimuli\nonmovNat\rock\nmn_rock04.jpg            	1	6	1	nmn_rock04.jpg       	nonmovNat	5	rock      	30	rock04      	303	not_alive	0	still	0	natural 	1	n	0	0    	 	0.0	0	163.70880280016002	163.808731399942	0.09992859978228802
150068	100	411	stimuli\plant2\fern\plant_fern09.jpg             	1	6	1	plant_fern09.jpg     	plant2   	7	fern      	14	fern09      	148	alive    	1	still	0	natural 	1	n	0	0    	 	0.0	0	163.858849999961	163.958752700128	0.0999027001671493
150218	100	412	stimuli\movNat\waves\mn_waves09.jpg              	1	6	1	mn_waves09.jpg       	movNat   	3	waves     	38	waves09     	388	not_alive	0	moves	1	natural 	1	n	0	0    	 	0.0	0	164.00881040003202	164.108736400027	0.099925999995321
150368	100	413	stimuli\plant2\clover\plant_clover02.jpg         	1	6	1	plant_clover02.jpg   	plant2   	7	clover    	9	clover02    	91	alive    	1	still	0	natural 	1	n	0	0    	 	0.0	0	164.15881319996	164.25874180020799	0.0999286002479493
150518	100	414	stimuli\movNat\river\mn_river01.jpg              	1	6	1	mn_river01.jpg       	movNat   	3	river     	29	river01     	290	not_alive	0	moves	1	natural 	1	n	0	0    	 	0.0	0	164.30881409998997	164.408751199953	0.0999370999634266
150668	100	415	stimuli\movNat\river\mn_river06.jpg              	1	6	1	mn_river06.jpg       	movNat   	3	river     	29	river06     	295	not_alive	0	moves	1	natural 	1	n	0	0    	 	0.0	0	164.458817600273	164.558739700355	0.0999221000820398
150818	100	416	stimuli\plant2\moss\plant_moss05.jpg             	1	6	1	plant_moss05.jpg     	plant2   	7	moss      	25	moss05      	254	alive    	1	still	0	natural 	1	n	0	0    	 	0.0	0	164.60881440015498	164.708720300347	0.0999059001915156
150968	100	417	stimuli\nonmovNat\shell\nmn_shell10.jpg          	1	6	1	nmn_shell10.jpg      	nonmovNat	5	shell     	32	shell10     	329	not_alive	0	still	0	natural 	1	n	0	0    	 	0.0	0	164.75879839994	164.858719200362	0.0999208004213869
