onset	duration	eventnumber	stimulus_file	blockno	trialno	is_faststream	stim	stim_category	category_number	exemplar	exemplar_number	image_name	image_number	aliveness	aliveness_bin	movement	movement_bin	naturalness	naturalness_bin	response_hand_moves	istarget	response	keypressed	rt	correct	time_stimon	time_stimoff	stimdur
42150	100	0	stimuli\animals\cat\animal_cat08.jpg             	1	1	1	animal_cat08.jpg     	animals  	0	cat       	6	cat08       	67	alive    	1	moves	1	natural 	1	n	0	0    	 	0.0	0	35.4413252000231	35.5412072000327	0.0998820000095292
42300	100	1	stimuli\plant\vine\plant_vine01.jpg              	1	1	1	plant_vine01.jpg     	plant    	6	vine      	36	vine01      	360	alive    	1	still	0	natural 	1	n	0	0    	 	0.0	0	35.591332599986295	35.6912040000316	0.0998714000452309
42450	100	2	stimuli\animals2\whale\animal_whale03.jpg        	1	1	1	animal_whale03.jpg   	animals2 	1	whale     	39	whale03     	392	alive    	1	moves	1	natural 	1	n	0	0    	 	0.0	0	35.7413091000635	35.841227800003296	0.0999186999397352
42600	100	3	stimuli\nonmovNat\shell\nmn_shell04.jpg          	1	1	1	nmn_shell04.jpg      	nonmovNat	5	shell     	32	shell04     	323	not_alive	0	still	0	natural 	1	n	0	0    	 	0.0	0	35.8913085999666	35.9912346999627	0.0999260999960824
42750	100	4	stimuli\plant2\clover\plant_clover01.jpg         	1	1	1	plant_clover01.jpg   	plant2   	7	clover    	9	clover01    	90	alive    	1	still	0	natural 	1	n	0	0    	 	0.0	0	36.041287600062795	36.141201699967496	0.0999140999047085
42900	100	5	stimuli\movNat\waterfall\mn_waterfall07.jpg      	1	1	1	mn_waterfall07.jpg   	movNat   	3	waterfall 	37	waterfall07 	376	not_alive	0	moves	1	natural 	1	n	0	0    	 	0.0	0	36.191338700009496	36.291206200025	0.0998675000155344
43050	100	6	stimuli\nonmovArt\lock\nma_lock07.jpg            	1	1	1	nma_lock07.jpg       	nonmovArt	4	lock      	24	lock07      	246	not_alive	0	still	0	artefact	0	n	0	0    	 	0.0	0	36.3412923000287	36.441203400027	0.0999110999982804
43200	100	7	stimuli\animals2\bee\animal_bee08.jpg            	1	1	1	animal_bee08.jpg     	animals2 	1	bee       	0	bee08       	7	alive    	1	moves	1	natural 	1	n	0	0    	 	0.0	0	36.49128810002	36.591417000046896	0.10012890002690303
43351	100	8	stimuli\plant2\lemontree\plant_lemontree10.jpg   	1	1	1	plant_lemontree10.jpg	plant2   	7	lemontree 	22	lemontree10 	229	alive    	1	still	0	natural 	1	n	0	0    	 	0.0	0	36.6416370000225	36.74119239998979	0.0995553999673575
43500	100	9	stimuli\movNat\river\mn_river08.jpg              	1	1	1	mn_river08.jpg       	movNat   	3	river     	29	river08     	297	not_alive	0	moves	1	natural 	1	n	0	0    	 	0.0	0	36.7912865000544	36.8911879999796	0.0999014999251812
43650	100	10	stimuli\animals\dog\animal_dog02.jpg             	1	1	1	animal_dog02.jpg     	animals  	0	dog       	11	dog02       	111	alive    	1	moves	1	natural 	1	n	0	0    	 	0.0	0	36.941289199981796	37.041197099955795	0.09990789997391401
43800	100	11	stimuli\movArt\train\ma_train09.jpg              	1	1	1	ma_train09.jpg       	movArt   	2	train     	34	train09     	348	not_alive	0	moves	1	artefact	0	n	0	0    	 	0.0	0	37.0912856999785	37.1911636999575	0.0998779999790713
43950	100	12	stimuli\nonmovNat\crystal\nmn_crystal01.jpg      	1	1	1	nmn_crystal01.jpg    	nonmovNat	5	crystal   	10	crystal01   	100	not_alive	0	still	0	natural 	1	n	0	0    	 	0.0	0	37.24129110004289	37.3411982000107	0.0999070999678224
44100	100	13	stimuli\movNat\hotspring\mn_hotspring07.jpg      	1	1	1	mn_hotspring07.jpg   	movNat   	3	hotspring 	21	hotspring07 	216	not_alive	0	moves	1	natural 	1	n	0	0    	 	0.0	0	37.3912826000014	37.4911874999525	0.0999048999510705
44250	100	14	stimuli\movArt\helicopter\ma_helicopter02.jpg    	1	1	1	ma_helicopter02.jpg  	movArt   	2	helicopter	19	helicopter02	191	not_alive	0	moves	1	artefact	0	n	0	0    	 	0.0	0	37.5412767999805	37.6411891999887	0.0999124000081792
44400	100	15	stimuli\animals\eagle\animal_eagle01.jpg         	1	1	1	animal_eagle01.jpg   	animals  	0	eagle     	13	eagle01     	130	alive    	1	moves	1	natural 	1	n	0	0    	 	0.0	0	37.6912752999924	37.7912633999949	0.0999881000025198
44550	100	16	stimuli\nonmovArt\lock\nma_lock08.jpg            	1	1	1	nma_lock08.jpg       	nonmovArt	4	lock      	24	lock08      	247	not_alive	0	still	0	artefact	0	n	0	0    	 	0.0	0	37.841468199971104	37.9412842000602	0.0998160000890493
44700	100	17	stimuli\plant2\fern\plant_fern09.jpg             	1	1	1	plant_fern09.jpg     	plant2   	7	fern      	14	fern09      	148	alive    	1	still	0	natural 	1	n	0	0    	 	0.0	0	37.9912861000048	38.0911951999879	0.0999090999830514
44850	100	18	stimuli\nonmovArt\mug\nma_mug08.jpg              	1	1	1	nma_mug08.jpg        	nonmovArt	4	mug       	26	mug08       	267	not_alive	0	still	0	artefact	0	n	0	0    	 	0.0	0	38.141280799987705	38.2411738999654	0.0998930999776348
45000	100	19	stimuli\nonmovArt\lock\nma_lock01.jpg            	1	1	1	nma_lock01.jpg       	nonmovArt	4	lock      	24	lock01      	240	not_alive	0	still	0	artefact	0	n	0	0    	 	0.0	0	38.291255400050396	38.3911826000549	0.0999272000044584
45150	100	20	stimuli\animals\dolphin\animal_dolphin09.jpg     	1	1	1	animal_dolphin09.jpg 	animals  	0	dolphin   	12	dolphin09   	128	alive    	1	moves	1	natural 	1	n	0	0    	 	0.0	0	38.441280500032	38.5411796000553	0.0998991000233218
45300	100	21	stimuli\plant2\clover\plant_clover02.jpg         	1	1	1	plant_clover02.jpg   	plant2   	7	clover    	9	clover02    	91	alive    	1	still	0	natural 	1	n	0	0    	 	0.0	0	38.5912633000407	38.691180199966794	0.0999168999260291
45450	100	22	stimuli\animals2\tiger\animal_tiger08.jpg        	1	1	1	animal_tiger08.jpg   	animals2 	1	tiger     	33	tiger08     	337	alive    	1	moves	1	natural 	1	n	0	0    	 	0.0	0	38.741277800058	38.8411744000623	0.0998966000042855
45600	100	23	stimuli\movNat\hotspring\mn_hotspring08.jpg      	1	1	1	mn_hotspring08.jpg   	movNat   	3	hotspring 	21	hotspring08 	217	not_alive	0	moves	1	natural 	1	n	0	0    	 	0.0	0	38.8912634999724	38.991183700040004	0.0999202000675723
45750	100	24	stimuli\animals2\whale\animal_whale06.jpg        	1	1	1	animal_whale06.jpg   	animals2 	1	whale     	39	whale06     	395	alive    	1	moves	1	natural 	1	n	0	0    	 	0.0	0	39.0412677000277	39.141193700022995	0.099925999995321
45900	100	25	stimuli\movNat\fire\mn_fire04.jpg                	1	1	1	mn_fire04.jpg        	movNat   	3	fire      	15	fire04      	153	not_alive	0	moves	1	natural 	1	n	0	0    	 	0.0	0	39.1912738999818	39.2911715999944	0.0998977000126615
46050	100	26	stimuli\plant\flower\plant_flower09.jpg          	1	1	1	plant_flower09.jpg   	plant    	6	flower    	16	flower09    	168	alive    	1	still	0	natural 	1	n	0	0    	 	0.0	0	39.3412821000675	39.441164499963605	0.0998823998961597
46200	100	27	stimuli\plant2\moss\plant_moss04.jpg             	1	1	1	plant_moss04.jpg     	plant2   	7	moss      	25	moss04      	253	alive    	1	still	0	natural 	1	n	0	0    	 	0.0	0	39.4912719000131	39.591116799973	0.0998448999598622
46350	100	28	stimuli\movArt\train\ma_train09.jpg              	1	1	1	ma_train09.jpg       	movArt   	2	train     	34	train09     	348	not_alive	0	moves	1	artefact	0	n	0	0    	 	0.0	0	39.6412742000539	39.741233699955	0.0999594999011606
46500	100	29	stimuli\nonmovNat\rock\nmn_rock07.jpg            	1	1	1	nmn_rock07.jpg       	nonmovNat	5	rock      	30	rock07      	306	not_alive	0	still	0	natural 	1	n	0	0    	 	0.0	0	39.7912507000146	39.8911580999848	0.0999073999701067
46650	100	30	stimuli\nonmovArt\headphones\nma_headphones10.jpg	1	1	1	nma_headphones10.jpg 	nonmovArt	4	headphones	18	headphones10	189	not_alive	0	still	0	artefact	0	n	0	0    	 	0.0	0	39.9412651000312	40.041166899958604	0.0999017999274656
46800	100	31	stimuli\animals\horse\animal_horse05.jpg         	1	1	1	animal_horse05.jpg   	animals  	0	horse     	20	horse05     	204	alive    	1	moves	1	natural 	1	n	0	0    	 	0.0	0	40.0912621000316	40.1911650999682	0.09990299993660301
46950	100	32	stimuli\animals\cat\animal_cat10.jpg             	1	1	1	animal_cat10.jpg     	animals  	0	cat       	6	cat10       	69	alive    	1	moves	1	natural 	1	n	0	0    	 	0.0	0	40.241264399956	40.3411577000515	0.09989330009557301
47100	100	33	stimuli\movNat\hotspring\mn_hotspring04.jpg      	1	1	1	mn_hotspring04.jpg   	movNat   	3	hotspring 	21	hotspring04 	213	not_alive	0	moves	1	natural 	1	n	0	0    	 	0.0	0	40.3912519000005	40.491167400032296	0.0999155000317841
47250	100	34	stimuli\plant2\fern\plant_fern04.jpg             	1	1	1	plant_fern04.jpg     	plant2   	7	fern      	14	fern04      	143	alive    	1	still	0	natural 	1	n	0	0    	 	0.0	0	40.5412639999995	40.6411690999521	0.0999050999525934
47400	100	35	stimuli\nonmovNat\crystal\nmn_crystal03.jpg      	1	1	1	nmn_crystal03.jpg    	nonmovNat	5	crystal   	10	crystal03   	102	not_alive	0	still	0	natural 	1	n	0	0    	 	0.0	0	40.691255699959605	40.7911707999883	0.0999151000287383
47550	100	36	stimuli\movArt\car\ma_car10.jpg                  	1	1	1	ma_car10.jpg         	movArt   	2	car       	5	car10       	59	not_alive	0	moves	1	artefact	0	n	0	0    	 	0.0	0	40.841260900022505	40.9411522999872	0.0998913999646902
47700	100	37	stimuli\plant\cactus\plant_cactus02.jpg          	1	1	1	plant_cactus02.jpg   	plant    	6	cactus    	4	cactus02    	41	alive    	1	still	0	natural 	1	n	0	0    	 	0.0	0	40.9912469000556	41.0911490999861	0.0999021999305114
47850	100	38	stimuli\nonmovArt\headphones\nma_headphones10.jpg	1	1	1	nma_headphones10.jpg 	nonmovArt	4	headphones	18	headphones10	189	not_alive	0	still	0	artefact	0	n	0	0    	 	0.0	0	41.1412626999663	41.241164200007894	0.0999015000415966
48000	100	39	stimuli\movArt\boat\ma_boat10.jpg                	1	1	1	ma_boat10.jpg        	movArt   	2	boat      	2	boat10      	29	not_alive	0	moves	1	artefact	0	n	0	0    	 	0.0	0	41.2912486999994	41.391165800043396	0.0999171000439673
48150	100	40	stimuli\movNat\river\mn_river05.jpg              	1	1	1	mn_river05.jpg       	movNat   	3	river     	29	river05     	294	not_alive	0	moves	1	natural 	1	n	0	0    	 	0.0	0	41.44138249999379	41.541185199981605	0.0998026999877765
48300	100	41	stimuli\nonmovArt\bench\nma_bench06.jpg          	1	1	1	nma_bench06.jpg      	nonmovArt	4	bench     	1	bench06     	15	not_alive	0	still	0	artefact	0	n	0	0    	 	0.0	0	41.5912384999683	41.69115530001	0.09991680004168302
48450	100	42	stimuli\animals\eagle\animal_eagle03.jpg         	1	1	1	animal_eagle03.jpg   	animals  	0	eagle     	13	eagle03     	132	alive    	1	moves	1	natural 	1	n	0	0    	 	0.0	0	41.74124560004571	41.8411247000331	0.0998790999874472
48600	100	43	stimuli\movArt\bus\ma_bus03.jpg                  	1	1	1	ma_bus03.jpg         	movArt   	2	bus       	3	bus03       	32	not_alive	0	moves	1	artefact	0	n	0	0    	 	0.0	0	41.8912525000051	41.9911294999765	0.0998769999714568
48750	100	44	stimuli\nonmovNat\cliff\nmn_cliff02.jpg          	1	1	1	nmn_cliff02.jpg      	nonmovNat	5	cliff     	7	cliff02     	71	not_alive	0	still	0	natural 	1	n	0	0    	 	0.0	0	42.041244799969704	42.1411680000601	0.0999232000904157
48900	100	45	stimuli\nonmovArt\bench\nma_bench05.jpg          	1	1	1	nma_bench05.jpg      	nonmovArt	4	bench     	1	bench05     	14	not_alive	0	still	0	artefact	0	n	0	0    	 	0.0	0	42.191229899995996	42.2911571000004	0.0999272000044584
49050	100	46	stimuli\nonmovArt\mug\nma_mug04.jpg              	1	1	1	nma_mug04.jpg        	nonmovArt	4	mug       	26	mug04       	263	not_alive	0	still	0	artefact	0	n	0	0    	 	0.0	0	42.3412290000124	42.4411523999879	0.0999233999755233
49200	100	47	stimuli\plant\vine\plant_vine10.jpg              	1	1	1	plant_vine10.jpg     	plant    	6	vine      	36	vine10      	369	alive    	1	still	0	natural 	1	n	0	0    	 	0.0	0	42.4912196999649	42.5911472999724	0.0999276000075042
49350	100	48	stimuli\movNat\river\mn_river06.jpg              	1	1	1	mn_river06.jpg       	movNat   	3	river     	29	river06     	295	not_alive	0	moves	1	natural 	1	n	0	0    	 	0.0	0	42.641229700064294	42.7411428999621	0.0999131998978555
49500	100	49	stimuli\nonmovNat\shell\nmn_shell01.jpg          	1	1	1	nmn_shell01.jpg      	nonmovNat	5	shell     	32	shell01     	320	not_alive	0	still	0	natural 	1	n	0	0    	 	0.0	0	42.791229699971105	42.8911418999778	0.0999122000066563
49650	100	50	stimuli\plant\cactus\plant_cactus01.jpg          	1	1	1	plant_cactus01.jpg   	plant    	6	cactus    	4	cactus01    	40	alive    	1	still	0	natural 	1	n	0	0    	 	0.0	0	42.9412353000371	43.0411255999934	0.0998902999563142
49800	100	51	stimuli\animals2\lemur\animal_lemur08.jpg        	1	1	1	animal_lemur08.jpg   	animals2 	1	lemur     	23	lemur08     	237	alive    	1	moves	1	natural 	1	n	0	0    	 	0.0	0	43.091236300068	43.1911289000418	0.0998925999738276
49950	100	52	stimuli\plant\flower\plant_flower10.jpg          	1	1	1	plant_flower10.jpg   	plant    	6	flower    	16	flower10    	169	alive    	1	still	0	natural 	1	n	0	0    	 	0.0	0	43.241338300052995	43.3411406000378	0.0998022999847307
50100	100	53	stimuli\movArt\car\ma_car04.jpg                  	1	1	1	ma_car04.jpg         	movArt   	2	car       	5	car04       	53	not_alive	0	moves	1	artefact	0	n	0	0    	 	0.0	0	43.3912389000179	43.4911237000488	0.0998848000308498
50250	100	54	stimuli\animals2\lemur\animal_lemur02.jpg        	1	1	1	animal_lemur02.jpg   	animals2 	1	lemur     	23	lemur02     	231	alive    	1	moves	1	natural 	1	n	1	0    	 	0.0	0	43.54121880000461	43.6411384999519	0.0999196999473497
50400	100	55	stimuli\nonmovArt\bench\nma_bench04.jpg          	1	1	1	nma_bench04.jpg      	nonmovArt	4	bench     	1	bench04     	13	not_alive	0	still	0	artefact	0	n	0	0    	 	0.0	0	43.6912191000301	43.7912253000541	0.10000620002392697
50550	100	56	stimuli\plant\cactus\plant_cactus01.jpg          	1	1	1	plant_cactus01.jpg   	plant    	6	cactus    	4	cactus01    	40	alive    	1	still	0	natural 	1	n	0	1    	f	0.391998899984173	1	43.841226299991796	43.9411461000564	0.0999198000645265
50700	100	57	stimuli\nonmovNat\cliff\nmn_cliff05.jpg          	1	1	1	nmn_cliff05.jpg      	nonmovNat	5	cliff     	7	cliff05     	74	not_alive	0	still	0	natural 	1	n	0	0    	 	0.0	0	43.991208899999	44.091127000050605	0.0999181000515818
50850	100	58	stimuli\plant2\moss\plant_moss08.jpg             	1	1	1	plant_moss08.jpg     	plant2   	7	moss      	25	moss08      	257	alive    	1	still	0	natural 	1	n	0	0    	 	0.0	0	44.14122140000111	44.2411404000595	0.0999190000584349
51000	100	59	stimuli\nonmovNat\sand\nmn_sand06.jpg            	1	1	1	nmn_sand06.jpg       	nonmovNat	5	sand      	31	sand06      	315	not_alive	0	still	0	natural 	1	n	0	0    	 	0.0	0	44.2912143999711	44.3911216000561	0.0999072000849992
51150	100	60	stimuli\plant\grass\plant_grass03.jpg            	1	1	1	plant_grass03.jpg    	plant    	6	grass     	17	grass03     	172	alive    	1	still	0	natural 	1	n	0	0    	 	0.0	0	44.441205200040706	44.5411444000201	0.09993919997941698
51300	100	61	stimuli\movArt\bus\ma_bus01.jpg                  	1	1	1	ma_bus01.jpg         	movArt   	2	bus       	3	bus01       	30	not_alive	0	moves	1	artefact	0	n	1	0    	 	0.0	0	44.5912240999751	44.691122199990794	0.0998981000157073
51450	100	62	stimuli\animals2\tiger\animal_tiger02.jpg        	1	1	1	animal_tiger02.jpg   	animals2 	1	tiger     	33	tiger02     	331	alive    	1	moves	1	natural 	1	n	0	0    	 	0.0	0	44.7412278000265	44.841122500016404	0.099894699989818
51600	100	63	stimuli\plant2\palmtree\plant_palmtree03.jpg     	1	1	1	plant_palmtree03.jpg 	plant2   	7	palmtree  	27	palmtree03  	272	alive    	1	still	0	natural 	1	n	1	1    	f	0.0919785998994484	1	44.891214200062706	44.991213400033295	0.0999991999706253
51750	100	64	stimuli\plant2\palmtree\plant_palmtree01.jpg     	1	1	1	plant_palmtree01.jpg 	plant2   	7	palmtree  	27	palmtree01  	270	alive    	1	still	0	natural 	1	n	0	0    	 	0.0	0	45.0412919999799	45.1411226000637	0.0998306000838056
51900	100	65	stimuli\nonmovNat\rock\nmn_rock02.jpg            	1	1	1	nmn_rock02.jpg       	nonmovNat	5	rock      	30	rock02      	301	not_alive	0	still	0	natural 	1	n	0	0    	 	0.0	0	45.1912178000202	45.2911232999759	0.0999054999556392
52050	100	66	stimuli\nonmovNat\crystal\nmn_crystal07.jpg      	1	1	1	nmn_crystal07.jpg    	nonmovNat	5	crystal   	10	crystal07   	106	not_alive	0	still	0	natural 	1	n	0	0    	 	0.0	0	45.3411995000206	45.4411176999565	0.099918199935928
52200	100	67	stimuli\animals2\lemur\animal_lemur05.jpg        	1	1	1	animal_lemur05.jpg   	animals2 	1	lemur     	23	lemur05     	234	alive    	1	moves	1	natural 	1	n	0	0    	 	0.0	0	45.4912026999518	45.591111500049	0.0999088000971824
52350	100	68	stimuli\movNat\fire\mn_fire09.jpg                	1	1	1	mn_fire09.jpg        	movNat   	3	fire      	15	fire09      	158	not_alive	0	moves	1	natural 	1	n	0	0    	 	0.0	0	45.641204499988795	45.741120400023604	0.0999159000348299
52500	100	69	stimuli\plant2\fern\plant_fern07.jpg             	1	1	1	plant_fern07.jpg     	plant2   	7	fern      	14	fern07      	146	alive    	1	still	0	natural 	1	n	0	0    	 	0.0	0	45.7912132999627	45.8911058000522	0.0998925000894814
52650	100	70	stimuli\nonmovNat\rock\nmn_rock08.jpg            	1	1	1	nmn_rock08.jpg       	nonmovNat	5	rock      	30	rock08      	307	not_alive	0	still	0	natural 	1	n	0	0    	 	0.0	0	45.9412108999677	46.0411258999957	0.0999150000279769
52800	100	71	stimuli\plant2\moss\plant_moss04.jpg             	1	1	1	plant_moss04.jpg     	plant2   	7	moss      	25	moss04      	253	alive    	1	still	0	natural 	1	n	0	0    	 	0.0	0	46.091209499980295	46.1911151000531	0.099905600072816
52950	100	72	stimuli\movNat\fire\mn_fire01.jpg                	1	1	1	mn_fire01.jpg        	movNat   	3	fire      	15	fire01      	150	not_alive	0	moves	1	natural 	1	n	0	0    	 	0.0	0	46.2412097000051	46.3411213000072	0.0999116000020876
53100	100	73	stimuli\nonmovArt\headphones\nma_headphones08.jpg	1	1	1	nma_headphones08.jpg 	nonmovArt	4	headphones	18	headphones08	187	not_alive	0	still	0	artefact	0	n	0	0    	 	0.0	0	46.3911940000253	46.4911011999939	0.0999071999685838
53250	100	74	stimuli\animals\dog\animal_dog06.jpg             	1	1	1	animal_dog06.jpg     	animals  	0	dog       	11	dog06       	115	alive    	1	moves	1	natural 	1	n	0	0    	 	0.0	0	46.541218700003796	46.64113100001121	0.0999123000074178
53400	100	75	stimuli\plant2\palmtree\plant_palmtree02.jpg     	1	1	1	plant_palmtree02.jpg 	plant2   	7	palmtree  	27	palmtree02  	271	alive    	1	still	0	natural 	1	n	0	0    	 	0.0	0	46.691318599972895	46.7912395000458	0.0999209000729024
53550	100	76	stimuli\movArt\helicopter\ma_helicopter09.jpg    	1	1	1	ma_helicopter09.jpg  	movArt   	2	helicopter	19	helicopter09	198	not_alive	0	moves	1	artefact	0	n	0	0    	 	0.0	0	46.8412552999798	46.9411067999899	0.0998515000101178
53700	100	77	stimuli\animals2\pigeon\animal_pigeon08.jpg      	1	1	1	animal_pigeon08.jpg  	animals2 	1	pigeon    	28	pigeon08    	287	alive    	1	moves	1	natural 	1	n	0	0    	 	0.0	0	46.9911956000142	47.0911091000307	0.0999135000165552
53850	100	78	stimuli\movArt\bus\ma_bus09.jpg                  	1	1	1	ma_bus09.jpg         	movArt   	2	bus       	3	bus09       	38	not_alive	0	moves	1	artefact	0	n	0	0    	 	0.0	0	47.141207900014706	47.2411224000389	0.0999145000241696
54000	100	79	stimuli\movArt\boat\ma_boat04.jpg                	1	1	1	ma_boat04.jpg        	movArt   	2	boat      	2	boat04      	23	not_alive	0	moves	1	artefact	0	n	0	0    	 	0.0	0	47.29118339996779	47.3911033000331	0.0999199000652879
58217	100	80	stimuli\animals\dolphin\animal_dolphin09.jpg     	1	2	1	animal_dolphin09.jpg 	animals  	0	dolphin   	12	dolphin09   	128	alive    	1	moves	1	natural 	1	n	0	0    	 	0.0	0	51.5078451000154	51.6077298000455	0.0998847000300884
58367	100	81	stimuli\plant\tree\plant_tree01.jpg              	1	2	1	plant_tree01.jpg     	plant    	6	tree      	35	tree01      	350	alive    	1	still	0	natural 	1	n	0	0    	 	0.0	0	51.6578196999617	51.7577294000657	0.0999097001040354
58517	100	82	stimuli\animals\dolphin\animal_dolphin10.jpg     	1	2	1	animal_dolphin10.jpg 	animals  	0	dolphin   	12	dolphin10   	129	alive    	1	moves	1	natural 	1	n	0	0    	 	0.0	0	51.8078117000405	51.907730499981	0.0999187999404966
58667	100	83	stimuli\movArt\train\ma_train10.jpg              	1	2	1	ma_train10.jpg       	movArt   	2	train     	34	train10     	349	not_alive	0	moves	1	artefact	0	n	0	0    	 	0.0	0	51.9578202000121	52.057732300017996	0.0999121000058949
58817	100	84	stimuli\movArt\helicopter\ma_helicopter08.jpg    	1	2	1	ma_helicopter08.jpg  	movArt   	2	helicopter	19	helicopter08	197	not_alive	0	moves	1	artefact	0	n	0	0    	 	0.0	0	52.1078128999798	52.2077140000183	0.0999011000385508
58967	100	85	stimuli\plant2\lemontree\plant_lemontree01.jpg   	1	2	1	plant_lemontree01.jpg	plant2   	7	lemontree 	22	lemontree01 	220	alive    	1	still	0	natural 	1	n	0	0    	 	0.0	0	52.257812299998506	52.3577264000196	0.0999141000211238
59117	100	86	stimuli\nonmovNat\shell\nmn_shell01.jpg          	1	2	1	nmn_shell01.jpg      	nonmovNat	5	shell     	32	shell01     	320	not_alive	0	still	0	natural 	1	n	0	0    	 	0.0	0	52.40782219998071	52.507740000030005	0.0999178000492975
59267	100	87	stimuli\movNat\waves\mn_waves07.jpg              	1	2	1	mn_waves07.jpg       	movNat   	3	waves     	38	waves07     	386	not_alive	0	moves	1	natural 	1	n	0	0    	 	0.0	0	52.5578177999705	52.65773580002129	0.0999180000508204
59417	100	88	stimuli\plant2\lemontree\plant_lemontree10.jpg   	1	2	1	plant_lemontree10.jpg	plant2   	7	lemontree 	22	lemontree10 	229	alive    	1	still	0	natural 	1	n	0	0    	 	0.0	0	52.7078252000502	52.80773090000729	0.0999056999571621
59567	100	89	stimuli\plant2\clover\plant_clover05.jpg         	1	2	1	plant_clover05.jpg   	plant2   	7	clover    	9	clover05    	94	alive    	1	still	0	natural 	1	n	0	0    	 	0.0	0	52.8578031000216	52.957727000000894	0.0999238999793306
59717	100	90	stimuli\animals\horse\animal_horse10.jpg         	1	2	1	animal_horse10.jpg   	animals  	0	horse     	20	horse10     	209	alive    	1	moves	1	natural 	1	n	0	0    	 	0.0	0	53.007883999962395	53.107708800002	0.0998248000396415
59867	100	91	stimuli\plant\tree\plant_tree10.jpg              	1	2	1	plant_tree10.jpg     	plant    	6	tree      	35	tree10      	359	alive    	1	still	0	natural 	1	n	0	0    	 	0.0	0	53.1578134000301	53.257714100065606	0.099900700035505
60017	100	92	stimuli\animals\eagle\animal_eagle09.jpg         	1	2	1	animal_eagle09.jpg   	animals  	0	eagle     	13	eagle09     	138	alive    	1	moves	1	natural 	1	n	0	0    	 	0.0	0	53.30781639995979	53.4077164999908	0.0999001000309363
60167	100	93	stimuli\animals\horse\animal_horse10.jpg         	1	2	1	animal_horse10.jpg   	animals  	0	horse     	20	horse10     	209	alive    	1	moves	1	natural 	1	n	0	0    	 	0.0	0	53.4578101000516	53.557705400046	0.0998952999943867
60317	100	94	stimuli\animals2\pigeon\animal_pigeon05.jpg      	1	2	1	animal_pigeon05.jpg  	animals2 	1	pigeon    	28	pigeon05    	284	alive    	1	moves	1	natural 	1	n	0	0    	 	0.0	0	53.6078001999995	53.7077177000465	0.0999175000470131
60467	100	95	stimuli\movNat\waterfall\mn_waterfall07.jpg      	1	2	1	mn_waterfall07.jpg   	movNat   	3	waterfall 	37	waterfall07 	376	not_alive	0	moves	1	natural 	1	n	0	0    	 	0.0	0	53.75778039998839	53.857724500005105	0.099944100016728
60617	100	96	stimuli\nonmovArt\clothespeg\nma_clothespeg05.jpg	1	2	1	nma_clothespeg05.jpg 	nonmovArt	4	clothespeg	8	clothespeg05	84	not_alive	0	still	0	artefact	0	n	0	0    	 	0.0	0	53.9077937999973	54.0077084000222	0.0999146000249311
60767	100	97	stimuli\animals\cat\animal_cat10.jpg             	1	2	1	animal_cat10.jpg     	animals  	0	cat       	6	cat10       	69	alive    	1	moves	1	natural 	1	n	0	0    	 	0.0	0	54.057798300054905	54.15769979998	0.0999014999251812
60917	100	98	stimuli\plant\grass\plant_grass05.jpg            	1	2	1	plant_grass05.jpg    	plant    	6	grass     	17	grass05     	174	alive    	1	still	0	natural 	1	n	0	0    	 	0.0	0	54.207794700050705	54.3076998000033	0.0999050999525934
61067	100	99	stimuli\nonmovNat\sand\nmn_sand10.jpg            	1	2	1	nmn_sand10.jpg       	nonmovNat	5	sand      	31	sand10      	319	not_alive	0	still	0	natural 	1	n	0	0    	 	0.0	0	54.357789900037496	54.4577176000457	0.0999277000082656
61217	100	100	stimuli\movNat\waves\mn_waves06.jpg              	1	2	1	mn_waves06.jpg       	movNat   	3	waves     	38	waves06     	385	not_alive	0	moves	1	natural 	1	n	0	0    	 	0.0	0	54.5077931999695	54.607676999992705	0.0998838000232353
61367	100	101	stimuli\animals2\whale\animal_whale08.jpg        	1	2	1	animal_whale08.jpg   	animals2 	1	whale     	39	whale08     	397	alive    	1	moves	1	natural 	1	n	0	0    	 	0.0	0	54.657798900036106	54.757716899970596	0.09991799993440499
61517	100	102	stimuli\nonmovArt\clothespeg\nma_clothespeg02.jpg	1	2	1	nma_clothespeg02.jpg 	nonmovArt	4	clothespeg	8	clothespeg02	81	not_alive	0	still	0	artefact	0	n	0	0    	 	0.0	0	54.807797400047995	54.907696899958	0.0998994999099522
61667	100	103	stimuli\movNat\waves\mn_waves02.jpg              	1	2	1	mn_waves02.jpg       	movNat   	3	waves     	38	waves02     	381	not_alive	0	moves	1	natural 	1	n	0	0    	 	0.0	0	54.957796500064404	55.0576988999965	0.0999023999320343
61817	100	104	stimuli\movNat\waterfall\mn_waterfall02.jpg      	1	2	1	mn_waterfall02.jpg   	movNat   	3	waterfall 	37	waterfall02 	371	not_alive	0	moves	1	natural 	1	n	0	0    	 	0.0	0	55.1077954999637	55.2076935999794	0.0998981000157073
61967	100	105	stimuli\nonmovNat\cliff\nmn_cliff01.jpg          	1	2	1	nmn_cliff01.jpg      	nonmovNat	5	cliff     	7	cliff01     	70	not_alive	0	still	0	natural 	1	n	0	0    	 	0.0	0	55.2578619000269	55.3577079999959	0.0998460999689996
62117	100	106	stimuli\animals2\bee\animal_bee08.jpg            	1	2	1	animal_bee08.jpg     	animals2 	1	bee       	0	bee08       	7	alive    	1	moves	1	natural 	1	n	0	0    	 	0.0	0	55.407788599957705	55.507713400060304	0.0999248001025989
62267	100	107	stimuli\plant\tree\plant_tree03.jpg              	1	2	1	plant_tree03.jpg     	plant    	6	tree      	35	tree03      	352	alive    	1	still	0	natural 	1	n	0	0    	 	0.0	0	55.55778090003879	55.6576913000317	0.0999103999929502
62417	100	108	stimuli\animals2\bee\animal_bee08.jpg            	1	2	1	animal_bee08.jpg     	animals2 	1	bee       	0	bee08       	7	alive    	1	moves	1	natural 	1	n	0	0    	 	0.0	0	55.7077681999654	55.8076903000474	0.0999221000820398
62567	100	109	stimuli\plant\grass\plant_grass05.jpg            	1	2	1	plant_grass05.jpg    	plant    	6	grass     	17	grass05     	174	alive    	1	still	0	natural 	1	n	0	0    	 	0.0	0	55.8577827999834	55.95691589999479	0.0991331000113859
62716	100	110	stimuli\nonmovArt\mug\nma_mug06.jpg              	1	2	1	nma_mug06.jpg        	nonmovArt	4	mug       	26	mug06       	265	not_alive	0	still	0	artefact	0	n	0	0    	 	0.0	0	56.00692489999349	56.1069159000181	0.0999910000246018
62866	100	111	stimuli\animals2\pigeon\animal_pigeon04.jpg      	1	2	1	animal_pigeon04.jpg  	animals2 	1	pigeon    	28	pigeon04    	283	alive    	1	moves	1	natural 	1	n	0	0    	 	0.0	0	56.156924800016	56.2569132000208	0.0999884000048041
63016	100	112	stimuli\movArt\car\ma_car06.jpg                  	1	2	1	ma_car06.jpg         	movArt   	2	car       	5	car06       	55	not_alive	0	moves	1	artefact	0	n	0	0    	 	0.0	0	56.306921600014896	56.4069102000212	0.09998860000632699
63166	100	113	stimuli\plant\flower\plant_flower09.jpg          	1	2	1	plant_flower09.jpg   	plant    	6	flower    	16	flower09    	168	alive    	1	still	0	natural 	1	n	0	0    	 	0.0	0	56.4569195000222	56.556923900032395	0.10000440001022098
63316	100	114	stimuli\animals\dog\animal_dog03.jpg             	1	2	1	animal_dog03.jpg     	animals  	0	dog       	11	dog03       	112	alive    	1	moves	1	natural 	1	n	0	0    	 	0.0	0	56.606919700046994	56.7069089000579	0.0999892000108957
63466	100	115	stimuli\nonmovNat\sand\nmn_sand10.jpg            	1	2	1	nmn_sand10.jpg       	nonmovNat	5	sand      	31	sand10      	319	not_alive	0	still	0	natural 	1	n	0	0    	 	0.0	0	56.7569180000573	56.856907799956396	0.0999897998990491
63616	100	116	stimuli\plant\vine\plant_vine10.jpg              	1	2	1	plant_vine10.jpg     	plant    	6	vine      	36	vine10      	369	alive    	1	still	0	natural 	1	n	1	0    	 	0.0	0	56.9069177999627	57.006906599970506	0.0999888000078499
63766	100	117	stimuli\movArt\boat\ma_boat09.jpg                	1	2	1	ma_boat09.jpg        	movArt   	2	boat      	2	boat09      	28	not_alive	0	moves	1	artefact	0	n	0	0    	 	0.0	0	57.0569144999608	57.1569048999809	0.0999904000200331
63916	100	118	stimuli\nonmovArt\clothespeg\nma_clothespeg03.jpg	1	2	1	nma_clothespeg03.jpg 	nonmovArt	4	clothespeg	8	clothespeg03	82	not_alive	0	still	0	artefact	0	n	0	1    	f	0.30017990001943	1	57.2069147999864	57.3069046000019	0.0999898000154644
64066	100	119	stimuli\animals2\tiger\animal_tiger04.jpg        	1	2	1	animal_tiger04.jpg   	animals2 	1	tiger     	33	tiger04     	333	alive    	1	moves	1	natural 	1	n	0	0    	 	0.0	0	57.3569143000059	57.4569016000023	0.0999872999964282
64216	100	120	stimuli\plant\cactus\plant_cactus06.jpg          	1	2	1	plant_cactus06.jpg   	plant    	6	cactus    	4	cactus06    	45	alive    	1	still	0	natural 	1	n	0	0    	 	0.0	0	57.5069108000025	57.6069021000294	0.0999913000268861
64366	100	121	stimuli\movNat\waterfall\mn_waterfall09.jpg      	1	2	1	mn_waterfall09.jpg   	movNat   	3	waterfall 	37	waterfall09 	378	not_alive	0	moves	1	natural 	1	n	0	0    	 	0.0	0	57.65691430005239	57.7568995000329	0.0999851999804377
64516	100	122	stimuli\nonmovArt\mug\nma_mug09.jpg              	1	2	1	nma_mug09.jpg        	nonmovArt	4	mug       	26	mug09       	268	not_alive	0	still	0	artefact	0	n	0	0    	 	0.0	0	57.806908700033105	57.9068973000394	0.09998860000632699
64666	100	123	stimuli\plant2\moss\plant_moss03.jpg             	1	2	1	plant_moss03.jpg     	plant2   	7	moss      	25	moss03      	252	alive    	1	still	0	natural 	1	n	0	0    	 	0.0	0	57.95690680004189	58.05689620005429	0.0999894000124186
64816	100	124	stimuli\movArt\train\ma_train04.jpg              	1	2	1	ma_train04.jpg       	movArt   	2	train     	34	train04     	343	not_alive	0	moves	1	artefact	0	n	0	0    	 	0.0	0	58.1069065000629	58.2068937000586	0.0999871999956667
64966	100	125	stimuli\animals2\tiger\animal_tiger01.jpg        	1	2	1	animal_tiger01.jpg   	animals2 	1	tiger     	33	tiger01     	330	alive    	1	moves	1	natural 	1	n	0	0    	 	0.0	0	58.2569029000588	58.356895199976904	0.0999922999180853
65116	100	126	stimuli\plant2\clover\plant_clover09.jpg         	1	2	1	plant_clover09.jpg   	plant2   	7	clover    	9	clover09    	98	alive    	1	still	0	natural 	1	n	0	0    	 	0.0	0	58.4069166999543	58.5068899999605	0.0999733000062406
65266	100	127	stimuli\animals\dolphin\animal_dolphin07.jpg     	1	2	1	animal_dolphin07.jpg 	animals  	0	dolphin   	12	dolphin07   	126	alive    	1	moves	1	natural 	1	n	0	0    	 	0.0	0	58.556899799965294	58.65689290000589	0.0999931000405922
65416	100	128	stimuli\animals\cat\animal_cat02.jpg             	1	2	1	animal_cat02.jpg     	animals  	0	cat       	6	cat02       	61	alive    	1	moves	1	natural 	1	n	0	0    	 	0.0	0	58.7069027000107	58.8068932000315	0.0999905000207945
65566	100	129	stimuli\movNat\waves\mn_waves01.jpg              	1	2	1	mn_waves01.jpg       	movNat   	3	waves     	38	waves01     	380	not_alive	0	moves	1	natural 	1	n	0	0    	 	0.0	0	58.856898500002	58.9568882000167	0.0999897000147029
65716	100	130	stimuli\movArt\bus\ma_bus06.jpg                  	1	2	1	ma_bus06.jpg         	movArt   	2	bus       	3	bus06       	35	not_alive	0	moves	1	artefact	0	n	1	0    	 	0.0	0	59.0068966000108	59.10688380000651	0.0999871999956667
65866	100	131	stimuli\movArt\car\ma_car03.jpg                  	1	2	1	ma_car03.jpg         	movArt   	2	car       	5	car03       	52	not_alive	0	moves	1	artefact	0	n	0	0    	 	0.0	0	59.15689290000589	59.25688320002521	0.0999903000192716
66016	100	132	stimuli\animals2\bee\animal_bee06.jpg            	1	2	1	animal_bee06.jpg     	animals2 	1	bee       	0	bee06       	5	alive    	1	moves	1	natural 	1	n	0	1    	f	0.3919779000571	1	59.3068950000452	59.406884000054596	0.0999890000093728
66166	100	133	stimuli\movArt\boat\ma_boat04.jpg                	1	2	1	ma_boat04.jpg        	movArt   	2	boat      	2	boat04      	23	not_alive	0	moves	1	artefact	0	n	0	0    	 	0.0	0	59.456893400056295	59.5568819000619	0.0999885000055655
66316	100	134	stimuli\movNat\fire\mn_fire10.jpg                	1	2	1	mn_fire10.jpg        	movNat   	3	fire      	15	fire10      	159	not_alive	0	moves	1	natural 	1	n	0	0    	 	0.0	0	59.606892599957106	59.7068799999543	0.0999873999971896
66466	100	135	stimuli\animals2\lemur\animal_lemur02.jpg        	1	2	1	animal_lemur02.jpg   	animals2 	1	lemur     	23	lemur02     	231	alive    	1	moves	1	natural 	1	n	0	0    	 	0.0	0	59.7568911999697	59.856879799976	0.09998860000632699
66616	100	136	stimuli\plant2\lemontree\plant_lemontree07.jpg   	1	2	1	plant_lemontree07.jpg	plant2   	7	lemontree 	22	lemontree07 	226	alive    	1	still	0	natural 	1	n	0	0    	 	0.0	0	59.9068874999648	60.00687889999251	0.0999914000276476
66766	100	137	stimuli\movArt\helicopter\ma_helicopter06.jpg    	1	2	1	ma_helicopter06.jpg  	movArt   	2	helicopter	19	helicopter06	195	not_alive	0	moves	1	artefact	0	n	0	0    	 	0.0	0	60.0568884999957	60.1568876999663	0.0999991999706253
66916	100	138	stimuli\plant2\lemontree\plant_lemontree03.jpg   	1	2	1	plant_lemontree03.jpg	plant2   	7	lemontree 	22	lemontree03 	222	alive    	1	still	0	natural 	1	n	0	0    	 	0.0	0	60.2068876000121	60.3068762000185	0.09998860000632699
67066	100	139	stimuli\plant2\clover\plant_clover01.jpg         	1	2	1	plant_clover01.jpg   	plant2   	7	clover    	9	clover01    	90	alive    	1	still	0	natural 	1	n	0	0    	 	0.0	0	60.35688580002171	60.4568741000257	0.0999883000040426
67216	100	140	stimuli\movNat\river\mn_river03.jpg              	1	2	1	mn_river03.jpg       	movNat   	3	river     	29	river03     	292	not_alive	0	moves	1	natural 	1	n	0	0    	 	0.0	0	60.5068801000016	60.6068743000505	0.0999942000489682
67366	100	141	stimuli\nonmovNat\crystal\nmn_crystal01.jpg      	1	2	1	nmn_crystal01.jpg    	nonmovNat	5	crystal   	10	crystal01   	100	not_alive	0	still	0	natural 	1	n	0	0    	 	0.0	0	60.656881700037005	60.7568725000601	0.0999908000230789
67516	100	142	stimuli\plant2\fern\plant_fern08.jpg             	1	2	1	plant_fern08.jpg     	plant2   	7	fern      	14	fern08      	147	alive    	1	still	0	natural 	1	n	0	0    	 	0.0	0	60.806881200056495	60.9068687000545	0.099987499997951
67666	100	143	stimuli\plant\cactus\plant_cactus07.jpg          	1	2	1	plant_cactus07.jpg   	plant    	6	cactus    	4	cactus07    	46	alive    	1	still	0	natural 	1	n	0	0    	 	0.0	0	60.9568794000661	61.0568689999636	0.0999895998975262
67816	100	144	stimuli\nonmovNat\cliff\nmn_cliff04.jpg          	1	2	1	nmn_cliff04.jpg      	nonmovNat	5	cliff     	7	cliff04     	73	not_alive	0	still	0	natural 	1	n	0	0    	 	0.0	0	61.1068796999753	61.2068680999801	0.0999884000048041
67966	100	145	stimuli\nonmovArt\clothespeg\nma_clothespeg09.jpg	1	2	1	nma_clothespeg09.jpg 	nonmovArt	4	clothespeg	8	clothespeg09	88	not_alive	0	still	0	artefact	0	n	0	0    	 	0.0	0	61.2569180000573	61.3568659999874	0.0999479999300092
68116	100	146	stimuli\nonmovNat\sand\nmn_sand05.jpg            	1	2	1	nmn_sand05.jpg       	nonmovNat	5	sand      	31	sand05      	314	not_alive	0	still	0	natural 	1	n	0	0    	 	0.0	0	61.40687429998071	61.506865800009095	0.099991500028409
68266	100	147	stimuli\animals2\whale\animal_whale09.jpg        	1	2	1	animal_whale09.jpg   	animals2 	1	whale     	39	whale09     	398	alive    	1	moves	1	natural 	1	n	0	0    	 	0.0	0	61.5568710999796	61.6568646000233	0.099993500043638
68416	100	148	stimuli\movArt\bus\ma_bus01.jpg                  	1	2	1	ma_bus01.jpg         	movArt   	2	bus       	3	bus01       	30	not_alive	0	moves	1	artefact	0	n	0	0    	 	0.0	0	61.706871500005896	61.80686070001679	0.0999892000108957
68566	100	149	stimuli\plant\flower\plant_flower02.jpg          	1	2	1	plant_flower02.jpg   	plant    	6	flower    	16	flower02    	161	alive    	1	still	0	natural 	1	n	0	0    	 	0.0	0	61.856867900001795	61.9568698999938	0.10000199999194599
68716	100	150	stimuli\nonmovArt\clothespeg\nma_clothespeg09.jpg	1	2	1	nma_clothespeg09.jpg 	nonmovArt	4	clothespeg	8	clothespeg09	88	not_alive	0	still	0	artefact	0	n	0	0    	 	0.0	0	62.0068704000441	62.1068607000634	0.0999903000192716
68866	100	151	stimuli\nonmovArt\headphones\nma_headphones06.jpg	1	2	1	nma_headphones06.jpg 	nonmovArt	4	headphones	18	headphones06	185	not_alive	0	still	0	artefact	0	n	0	0    	 	0.0	0	62.1568691000575	62.256858200067605	0.0999891000101342
69016	100	152	stimuli\movNat\river\mn_river10.jpg              	1	2	1	mn_river10.jpg       	movNat   	3	river     	29	river10     	299	not_alive	0	moves	1	natural 	1	n	0	0    	 	0.0	0	62.3068663000595	62.406854300061205	0.0999880000017583
69166	100	153	stimuli\plant2\palmtree\plant_palmtree05.jpg     	1	2	1	plant_palmtree05.jpg 	plant2   	7	palmtree  	27	palmtree05  	274	alive    	1	still	0	natural 	1	n	0	0    	 	0.0	0	62.456862700055396	62.5568553999765	0.0999926999211311
69316	100	154	stimuli\animals\cat\animal_cat02.jpg             	1	2	1	animal_cat02.jpg     	animals  	0	cat       	6	cat02       	61	alive    	1	moves	1	natural 	1	n	0	0    	 	0.0	0	62.606862799963	62.7068529999815	0.0999902000185102
69466	100	155	stimuli\movNat\river\mn_river03.jpg              	1	2	1	mn_river03.jpg       	movNat   	3	river     	29	river03     	292	not_alive	0	moves	1	natural 	1	n	0	0    	 	0.0	0	62.756862999987796	62.856852199998706	0.0999892000108957
69616	100	156	stimuli\movNat\fire\mn_fire02.jpg                	1	2	1	mn_fire02.jpg        	movNat   	3	fire      	15	fire02      	151	not_alive	0	moves	1	natural 	1	n	0	0    	 	0.0	0	62.9068605999928	63.0068531000288	0.0999925000360235
69766	100	157	stimuli\movNat\hotspring\mn_hotspring04.jpg      	1	2	1	mn_hotspring04.jpg   	movNat   	3	hotspring 	21	hotspring04 	213	not_alive	0	moves	1	natural 	1	n	0	0    	 	0.0	0	63.056857799994795	63.156845599995	0.0999878000002354
69916	100	158	stimuli\plant2\moss\plant_moss01.jpg             	1	2	1	plant_moss01.jpg     	plant2   	7	moss      	25	moss01      	250	alive    	1	still	0	natural 	1	n	0	0    	 	0.0	0	63.2068577000173	63.3068468000274	0.0999891000101342
70066	100	159	stimuli\animals2\tiger\animal_tiger10.jpg        	1	2	1	animal_tiger10.jpg   	animals2 	1	tiger     	33	tiger10     	339	alive    	1	moves	1	natural 	1	n	0	0    	 	0.0	0	63.3568558000261	63.456846700049894	0.0999909000238403
74617	100	160	stimuli\plant\tree\plant_tree08.jpg              	1	3	1	plant_tree08.jpg     	plant    	6	tree      	35	tree08      	357	alive    	1	still	0	natural 	1	n	0	0    	 	0.0	0	67.9076880000066	68.0075829999987	0.0998949999921023
74767	100	161	stimuli\nonmovNat\crystal\nmn_crystal02.jpg      	1	3	1	nmn_crystal02.jpg    	nonmovNat	5	crystal   	10	crystal02   	101	not_alive	0	still	0	natural 	1	n	0	0    	 	0.0	0	68.0576652999735	68.1575780999847	0.099912800011225
74917	100	162	stimuli\plant2\fern\plant_fern08.jpg             	1	3	1	plant_fern08.jpg     	plant2   	7	fern      	14	fern08      	147	alive    	1	still	0	natural 	1	n	0	0    	 	0.0	0	68.2076601999579	68.3075757999905	0.0999156000325456
75067	100	163	stimuli\nonmovNat\crystal\nmn_crystal04.jpg      	1	3	1	nmn_crystal04.jpg    	nonmovNat	5	crystal   	10	crystal04   	103	not_alive	0	still	0	natural 	1	n	0	0    	 	0.0	0	68.3576636000071	68.4575603000121	0.09989670000504701
75217	100	164	stimuli\nonmovNat\sand\nmn_sand02.jpg            	1	3	1	nmn_sand02.jpg       	nonmovNat	5	sand      	31	sand02      	311	not_alive	0	still	0	natural 	1	n	0	0    	 	0.0	0	68.50765489996411	68.6075659999624	0.0999110999982804
75367	100	165	stimuli\nonmovArt\clothespeg\nma_clothespeg04.jpg	1	3	1	nma_clothespeg04.jpg 	nonmovArt	4	clothespeg	8	clothespeg04	83	not_alive	0	still	0	artefact	0	n	0	0    	 	0.0	0	68.65765670000111	68.75757819996221	0.0999214999610558
75517	100	166	stimuli\plant2\lemontree\plant_lemontree03.jpg   	1	3	1	plant_lemontree03.jpg	plant2   	7	lemontree 	22	lemontree03 	222	alive    	1	still	0	natural 	1	n	0	0    	 	0.0	0	68.8076769000618	68.907568100025	0.0998911999631673
75667	100	167	stimuli\movArt\helicopter\ma_helicopter06.jpg    	1	3	1	ma_helicopter06.jpg  	movArt   	2	helicopter	19	helicopter06	195	not_alive	0	moves	1	artefact	0	n	0	0    	 	0.0	0	68.9576713000424	69.0575611999957	0.0998898999532684
75817	100	168	stimuli\animals\eagle\animal_eagle02.jpg         	1	3	1	animal_eagle02.jpg   	animals  	0	eagle     	13	eagle02     	131	alive    	1	moves	1	natural 	1	n	0	0    	 	0.0	0	69.10764669999479	69.2075678999536	0.0999211999587714
75967	100	169	stimuli\animals2\pigeon\animal_pigeon05.jpg      	1	3	1	animal_pigeon05.jpg  	animals2 	1	pigeon    	28	pigeon05    	284	alive    	1	moves	1	natural 	1	n	0	0    	 	0.0	0	69.25767510000149	69.3575687999837	0.0998936999822035
76117	100	170	stimuli\nonmovNat\shell\nmn_shell09.jpg          	1	3	1	nmn_shell09.jpg      	nonmovNat	5	shell     	32	shell09     	328	not_alive	0	still	0	natural 	1	n	0	0    	 	0.0	0	69.40765219996679	69.5075660999864	0.099913900019601
76267	100	171	stimuli\nonmovArt\headphones\nma_headphones09.jpg	1	3	1	nma_headphones09.jpg 	nonmovArt	4	headphones	18	headphones09	188	not_alive	0	still	0	artefact	0	n	0	0    	 	0.0	0	69.5577017000178	69.6575657000067	0.0998639999888837
76417	100	172	stimuli\plant2\clover\plant_clover03.jpg         	1	3	1	plant_clover03.jpg   	plant2   	7	clover    	9	clover03    	92	alive    	1	still	0	natural 	1	n	1	0    	 	0.0	0	69.7077680999646	69.8075677000452	0.0997996000805869
76567	100	173	stimuli\nonmovArt\bench\nma_bench06.jpg          	1	3	1	nma_bench06.jpg      	nonmovArt	4	bench     	1	bench06     	15	not_alive	0	still	0	artefact	0	n	0	0    	 	0.0	0	69.85764020006171	69.9575642000418	0.099923999980092
76717	100	174	stimuli\nonmovArt\lock\nma_lock09.jpg            	1	3	1	nma_lock09.jpg       	nonmovArt	4	lock      	24	lock09      	248	not_alive	0	still	0	artefact	0	n	0	1    	f	0.300358700100332	1	70.0076549999649	70.1075671999715	0.0999122000066563
76867	100	175	stimuli\animals\cat\animal_cat05.jpg             	1	3	1	animal_cat05.jpg     	animals  	0	cat       	6	cat05       	64	alive    	1	moves	1	natural 	1	n	0	0    	 	0.0	0	70.1576454000315	70.25757510005499	0.0999297000234946
77017	100	176	stimuli\plant\tree\plant_tree01.jpg              	1	3	1	plant_tree01.jpg     	plant    	6	tree      	35	tree01      	350	alive    	1	still	0	natural 	1	n	1	0    	 	0.0	0	70.30764869996351	70.4075566000538	0.0999079000903293
77167	100	177	stimuli\plant\tree\plant_tree06.jpg              	1	3	1	plant_tree06.jpg     	plant    	6	tree      	35	tree06      	355	alive    	1	still	0	natural 	1	n	0	0    	 	0.0	0	70.4576888000593	70.55756400001701	0.0998751999577507
77317	100	178	stimuli\movNat\waterfall\mn_waterfall05.jpg      	1	3	1	mn_waterfall05.jpg   	movNat   	3	waterfall 	37	waterfall05 	374	not_alive	0	moves	1	natural 	1	n	0	1    	f	0.292025200091302	1	70.6076391000533	70.7075639000395	0.0999247999861836
77467	100	179	stimuli\movArt\train\ma_train02.jpg              	1	3	1	ma_train02.jpg       	movArt   	2	train     	34	train02     	341	not_alive	0	moves	1	artefact	0	n	0	0    	 	0.0	0	70.7576506000478	70.85754930006809	0.09989870002027601
77617	100	180	stimuli\movArt\boat\ma_boat07.jpg                	1	3	1	ma_boat07.jpg        	movArt   	2	boat      	2	boat07      	26	not_alive	0	moves	1	artefact	0	n	0	0    	 	0.0	0	70.90764990006569	71.0075396000175	0.0998896999517455
77767	100	181	stimuli\movArt\boat\ma_boat09.jpg                	1	3	1	ma_boat09.jpg        	movArt   	2	boat      	2	boat09      	28	not_alive	0	moves	1	artefact	0	n	0	0    	 	0.0	0	71.0576618000632	71.1575699000387	0.0999080999754369
77917	100	182	stimuli\animals2\lemur\animal_lemur05.jpg        	1	3	1	animal_lemur05.jpg   	animals2 	1	lemur     	23	lemur05     	234	alive    	1	moves	1	natural 	1	n	0	0    	 	0.0	0	71.207642900059	71.3075515000382	0.0999085999792441
78067	100	183	stimuli\movNat\waves\mn_waves09.jpg              	1	3	1	mn_waves09.jpg       	movNat   	3	waves     	38	waves09     	388	not_alive	0	moves	1	natural 	1	n	0	0    	 	0.0	0	71.3577067999868	71.4575656000525	0.0998588000657036
78217	100	184	stimuli\animals2\pigeon\animal_pigeon03.jpg      	1	3	1	animal_pigeon03.jpg  	animals2 	1	pigeon    	28	pigeon03    	282	alive    	1	moves	1	natural 	1	n	0	0    	 	0.0	0	71.50764169998	71.60755419998901	0.0999125000089407
78367	100	185	stimuli\animals\horse\animal_horse01.jpg         	1	3	1	animal_horse01.jpg   	animals  	0	horse     	20	horse01     	200	alive    	1	moves	1	natural 	1	n	0	0    	 	0.0	0	71.65764150000179	71.7575593000511	0.0999178000492975
78517	100	186	stimuli\animals\dog\animal_dog03.jpg             	1	3	1	animal_dog03.jpg     	animals  	0	dog       	11	dog03       	112	alive    	1	moves	1	natural 	1	n	0	0    	 	0.0	0	71.8076429000357	71.9075608999701	0.09991799993440499
78667	100	187	stimuli\animals\eagle\animal_eagle05.jpg         	1	3	1	animal_eagle05.jpg   	animals  	0	eagle     	13	eagle05     	134	alive    	1	moves	1	natural 	1	n	0	0    	 	0.0	0	71.9576369000133	72.0575743999798	0.0999374999664724
78817	100	188	stimuli\nonmovNat\shell\nmn_shell06.jpg          	1	3	1	nmn_shell06.jpg      	nonmovNat	5	shell     	32	shell06     	325	not_alive	0	still	0	natural 	1	n	0	0    	 	0.0	0	72.1076618999941	72.2075512000592	0.0998893000651151
78967	100	189	stimuli\animals2\whale\animal_whale05.jpg        	1	3	1	animal_whale05.jpg   	animals2 	1	whale     	39	whale05     	394	alive    	1	moves	1	natural 	1	n	0	0    	 	0.0	0	72.25764249998609	72.35756040003609	0.0999179000500589
79117	100	190	stimuli\plant2\fern\plant_fern05.jpg             	1	3	1	plant_fern05.jpg     	plant2   	7	fern      	14	fern05      	144	alive    	1	still	0	natural 	1	n	0	0    	 	0.0	0	72.4076466000406	72.5075490999734	0.0999024999327957
79267	100	191	stimuli\movArt\train\ma_train01.jpg              	1	3	1	ma_train01.jpg       	movArt   	2	train     	34	train01     	340	not_alive	0	moves	1	artefact	0	n	0	0    	 	0.0	0	72.55765440000691	72.6575625999831	0.0999081999761983
79417	100	192	stimuli\movArt\car\ma_car05.jpg                  	1	3	1	ma_car05.jpg         	movArt   	2	car       	5	car05       	54	not_alive	0	moves	1	artefact	0	n	0	0    	 	0.0	0	72.7076384000247	72.80755460006179	0.0999162000371143
79567	100	193	stimuli\nonmovArt\mug\nma_mug01.jpg              	1	3	1	nma_mug01.jpg        	nonmovArt	4	mug       	26	mug01       	260	not_alive	0	still	0	artefact	0	n	0	0    	 	0.0	0	72.8576343000168	72.9575670000631	0.0999327000463381
79717	100	194	stimuli\nonmovNat\sand\nmn_sand01.jpg            	1	3	1	nmn_sand01.jpg       	nonmovNat	5	sand      	31	sand01      	310	not_alive	0	still	0	natural 	1	n	0	0    	 	0.0	0	73.00762299995401	73.10758910002191	0.0999661000678315
79867	100	195	stimuli\plant\vine\plant_vine01.jpg              	1	3	1	plant_vine01.jpg     	plant    	6	vine      	36	vine01      	360	alive    	1	still	0	natural 	1	n	0	0    	 	0.0	0	73.1577528000344	73.2575669999933	0.0998141999589279
80017	100	196	stimuli\animals2\bee\animal_bee01.jpg            	1	3	1	animal_bee01.jpg     	animals2 	1	bee       	0	bee01       	0	alive    	1	moves	1	natural 	1	n	0	0    	 	0.0	0	73.30764000001359	73.4075372000225	0.0998972000088542
80167	100	197	stimuli\nonmovArt\lock\nma_lock02.jpg            	1	3	1	nma_lock02.jpg       	nonmovArt	4	lock      	24	lock02      	241	not_alive	0	still	0	artefact	0	n	0	0    	 	0.0	0	73.457638300024	73.557553700055	0.0999154000310227
80317	100	198	stimuli\plant\flower\plant_flower02.jpg          	1	3	1	plant_flower02.jpg   	plant    	6	flower    	16	flower02    	161	alive    	1	still	0	natural 	1	n	0	0    	 	0.0	0	73.607638400048	73.70754700002729	0.0999085999792441
80467	100	199	stimuli\movArt\car\ma_car02.jpg                  	1	3	1	ma_car02.jpg         	movArt   	2	car       	5	car02       	51	not_alive	0	moves	1	artefact	0	n	0	0    	 	0.0	0	73.7576348000439	73.85755139996759	0.0999165999237448
80617	100	200	stimuli\movNat\waterfall\mn_waterfall01.jpg      	1	3	1	mn_waterfall01.jpg   	movNat   	3	waterfall 	37	waterfall01 	370	not_alive	0	moves	1	natural 	1	n	0	0    	 	0.0	0	73.9076366999652	74.0075598000549	0.0999231000896543
80767	100	201	stimuli\plant2\palmtree\plant_palmtree02.jpg     	1	3	1	plant_palmtree02.jpg 	plant2   	7	palmtree  	27	palmtree02  	271	alive    	1	still	0	natural 	1	n	0	0    	 	0.0	0	74.05762380000671	74.15754559996999	0.0999217999633401
80917	100	202	stimuli\nonmovArt\headphones\nma_headphones05.jpg	1	3	1	nma_headphones05.jpg 	nonmovArt	4	headphones	18	headphones05	184	not_alive	0	still	0	artefact	0	n	0	0    	 	0.0	0	74.2076334999874	74.3075288999826	0.0998953999951481
81067	100	203	stimuli\animals\horse\animal_horse04.jpg         	1	3	1	animal_horse04.jpg   	animals  	0	horse     	20	horse04     	203	alive    	1	moves	1	natural 	1	n	0	0    	 	0.0	0	74.35762100003191	74.4575447000097	0.0999236999778077
81217	100	204	stimuli\movArt\helicopter\ma_helicopter04.jpg    	1	3	1	ma_helicopter04.jpg  	movArt   	2	helicopter	19	helicopter04	193	not_alive	0	moves	1	artefact	0	n	0	0    	 	0.0	0	74.50765479996329	74.6075349999592	0.0998801999958232
81367	100	205	stimuli\plant\vine\plant_vine05.jpg              	1	3	1	plant_vine05.jpg     	plant    	6	vine      	36	vine05      	364	alive    	1	still	0	natural 	1	n	0	0    	 	0.0	0	74.6576121000107	74.75753890001221	0.0999268000014126
81517	100	206	stimuli\nonmovArt\mug\nma_mug02.jpg              	1	3	1	nma_mug02.jpg        	nonmovArt	4	mug       	26	mug02       	261	not_alive	0	still	0	artefact	0	n	0	0    	 	0.0	0	74.8076242000097	74.9076028000563	0.0999786000465974
81667	100	207	stimuli\animals\eagle\animal_eagle06.jpg         	1	3	1	animal_eagle06.jpg   	animals  	0	eagle     	13	eagle06     	135	alive    	1	moves	1	natural 	1	n	0	0    	 	0.0	0	74.9576466999715	75.05763080006	0.0999841000884771
81817	100	208	stimuli\plant\grass\plant_grass08.jpg            	1	3	1	plant_grass08.jpg    	plant    	6	grass     	17	grass08     	177	alive    	1	still	0	natural 	1	n	0	0    	 	0.0	0	75.1076200000243	75.20753620006141	0.0999162000371143
81967	100	209	stimuli\animals\dog\animal_dog07.jpg             	1	3	1	animal_dog07.jpg     	animals  	0	dog       	11	dog07       	116	alive    	1	moves	1	natural 	1	n	0	0    	 	0.0	0	75.2576139000012	75.3575365999713	0.0999226999701932
82117	100	210	stimuli\movNat\waves\mn_waves07.jpg              	1	3	1	mn_waves07.jpg       	movNat   	3	waves     	38	waves07     	386	not_alive	0	moves	1	natural 	1	n	0	0    	 	0.0	0	75.40762269997501	75.5075292000547	0.099906500079669
82267	100	211	stimuli\nonmovArt\lock\nma_lock03.jpg            	1	3	1	nma_lock03.jpg       	nonmovArt	4	lock      	24	lock03      	242	not_alive	0	still	0	artefact	0	n	0	0    	 	0.0	0	75.55761210003399	75.6575248000445	0.0999127000104636
82417	100	212	stimuli\nonmovNat\rock\nmn_rock01.jpg            	1	3	1	nmn_rock01.jpg       	nonmovNat	5	rock      	30	rock01      	300	not_alive	0	still	0	natural 	1	n	0	0    	 	0.0	0	75.70761809998659	75.8075155999977	0.0998975000111386
82567	100	213	stimuli\movNat\hotspring\mn_hotspring09.jpg      	1	3	1	mn_hotspring09.jpg   	movNat   	3	hotspring 	21	hotspring09 	218	not_alive	0	moves	1	natural 	1	n	0	0    	 	0.0	0	75.8576169000007	75.95752269995859	0.0999057999579236
82717	100	214	stimuli\plant\vine\plant_vine03.jpg              	1	3	1	plant_vine03.jpg     	plant    	6	vine      	36	vine03      	362	alive    	1	still	0	natural 	1	n	0	0    	 	0.0	0	76.0076038000407	76.1075280000223	0.0999241999816149
82867	100	215	stimuli\plant\cactus\plant_cactus08.jpg          	1	3	1	plant_cactus08.jpg   	plant    	6	cactus    	4	cactus08    	47	alive    	1	still	0	natural 	1	n	0	0    	 	0.0	0	76.1575951999985	76.2575097000226	0.0999145000241696
83017	100	216	stimuli\animals2\whale\animal_whale01.jpg        	1	3	1	animal_whale01.jpg   	animals2 	1	whale     	39	whale01     	390	alive    	1	moves	1	natural 	1	n	0	0    	 	0.0	0	76.307602899964	76.4075094000436	0.099906500079669
83167	100	217	stimuli\plant\flower\plant_flower06.jpg          	1	3	1	plant_flower06.jpg   	plant    	6	flower    	16	flower06    	165	alive    	1	still	0	natural 	1	n	0	0    	 	0.0	0	76.45761170005429	76.557513799984	0.0999020999297499
83317	100	218	stimuli\animals\dolphin\animal_dolphin07.jpg     	1	3	1	animal_dolphin07.jpg 	animals  	0	dolphin   	12	dolphin07   	126	alive    	1	moves	1	natural 	1	n	0	0    	 	0.0	0	76.6075946000637	76.70762310002459	0.10002849996089899
83467	100	219	stimuli\plant2\moss\plant_moss03.jpg             	1	3	1	plant_moss03.jpg     	plant2   	7	moss      	25	moss03      	252	alive    	1	still	0	natural 	1	n	0	0    	 	0.0	0	76.7576016000239	76.8575215999736	0.099919999949634
83617	100	220	stimuli\movArt\bus\ma_bus10.jpg                  	1	3	1	ma_bus10.jpg         	movArt   	2	bus       	3	bus10       	39	not_alive	0	moves	1	artefact	0	n	0	0    	 	0.0	0	76.9075945999939	77.0075141000561	0.0999195000622421
83767	100	221	stimuli\animals2\lemur\animal_lemur04.jpg        	1	3	1	animal_lemur04.jpg   	animals2 	1	lemur     	23	lemur04     	233	alive    	1	moves	1	natural 	1	n	1	0    	 	0.0	0	77.0575856000651	77.1575138999615	0.099928299896419
83917	100	222	stimuli\animals\dolphin\animal_dolphin04.jpg     	1	3	1	animal_dolphin04.jpg 	animals  	0	dolphin   	12	dolphin04   	123	alive    	1	moves	1	natural 	1	n	0	0    	 	0.0	0	77.20759690005801	77.307522600051	0.0999256999930366
84067	100	223	stimuli\animals\dog\animal_dog05.jpg             	1	3	1	animal_dog05.jpg     	animals  	0	dog       	11	dog05       	114	alive    	1	moves	1	natural 	1	n	0	1    	f	0.304563899990171	1	77.35758740000891	77.457496499992	0.0999090999830514
84217	100	224	stimuli\plant\grass\plant_grass09.jpg            	1	3	1	plant_grass09.jpg    	plant    	6	grass     	17	grass09     	178	alive    	1	still	0	natural 	1	n	0	0    	 	0.0	0	77.50758400000629	77.60749369999391	0.0999096999876201
84367	100	225	stimuli\plant\grass\plant_grass08.jpg            	1	3	1	plant_grass08.jpg    	plant    	6	grass     	17	grass08     	177	alive    	1	still	0	natural 	1	n	0	0    	 	0.0	0	77.6575622999808	77.7574720999692	0.0999097999883815
84517	100	226	stimuli\nonmovNat\shell\nmn_shell03.jpg          	1	3	1	nmn_shell03.jpg      	nonmovNat	5	shell     	32	shell03     	322	not_alive	0	still	0	natural 	1	n	1	0    	 	0.0	0	77.8075720999623	77.9074916000245	0.0999195000622421
84667	100	227	stimuli\animals2\bee\animal_bee09.jpg            	1	3	1	animal_bee09.jpg     	animals2 	1	bee       	0	bee09       	8	alive    	1	moves	1	natural 	1	n	0	0    	 	0.0	0	77.9575768000213	78.05749410006679	0.0999173000454902
84817	100	228	stimuli\movNat\hotspring\mn_hotspring10.jpg      	1	3	1	mn_hotspring10.jpg   	movNat   	3	hotspring 	21	hotspring10 	219	not_alive	0	moves	1	natural 	1	n	0	1    	f	0.391996400081553	1	78.10758860001809	78.207474600058	0.0998860000399872
84967	100	229	stimuli\animals2\pigeon\animal_pigeon10.jpg      	1	3	1	animal_pigeon10.jpg  	animals2 	1	pigeon    	28	pigeon10    	289	alive    	1	moves	1	natural 	1	n	0	0    	 	0.0	0	78.25758860004129	78.3574951000046	0.0999064999632537
85117	100	230	stimuli\plant2\palmtree\plant_palmtree02.jpg     	1	3	1	plant_palmtree02.jpg 	plant2   	7	palmtree  	27	palmtree02  	271	alive    	1	still	0	natural 	1	n	0	0    	 	0.0	0	78.4075675000204	78.507566699991	0.0999991999706253
85267	100	231	stimuli\nonmovNat\cliff\nmn_cliff02.jpg          	1	3	1	nmn_cliff02.jpg      	nonmovNat	5	cliff     	7	cliff02     	71	not_alive	0	still	0	natural 	1	n	0	0    	 	0.0	0	78.55755270004741	78.6574771000305	0.0999243999831378
85417	100	232	stimuli\movNat\fire\mn_fire09.jpg                	1	3	1	mn_fire09.jpg        	movNat   	3	fire      	15	fire09      	158	not_alive	0	moves	1	natural 	1	n	0	0    	 	0.0	0	78.70754700002729	78.8074655999662	0.0999185999389737
85567	100	233	stimuli\nonmovNat\rock\nmn_rock03.jpg            	1	3	1	nmn_rock03.jpg       	nonmovNat	5	rock      	30	rock03      	302	not_alive	0	still	0	natural 	1	n	0	0    	 	0.0	0	78.8575540999882	78.95748290000479	0.0999288000166416
85717	100	234	stimuli\animals\horse\animal_horse06.jpg         	1	3	1	animal_horse06.jpg   	animals  	0	horse     	20	horse06     	205	alive    	1	moves	1	natural 	1	n	0	0    	 	0.0	0	79.0075603000587	79.1074818000197	0.0999214999610558
85867	100	235	stimuli\nonmovArt\bench\nma_bench04.jpg          	1	3	1	nma_bench04.jpg      	nonmovArt	4	bench     	1	bench04     	13	not_alive	0	still	0	artefact	0	n	0	0    	 	0.0	0	79.15755790006371	79.2574833000545	0.0999253999907523
86017	100	236	stimuli\nonmovArt\bench\nma_bench10.jpg          	1	3	1	nma_bench10.jpg      	nonmovArt	4	bench     	1	bench10     	19	not_alive	0	still	0	artefact	0	n	0	0    	 	0.0	0	79.3075652000262	79.4074440000113	0.0998787999851629
86167	100	237	stimuli\animals2\tiger\animal_tiger09.jpg        	1	3	1	animal_tiger09.jpg   	animals2 	1	tiger     	33	tiger09     	338	alive    	1	moves	1	natural 	1	n	0	0    	 	0.0	0	79.45755479997021	79.5574866000097	0.0999318000394851
86317	100	238	stimuli\nonmovNat\rock\nmn_rock04.jpg            	1	3	1	nmn_rock04.jpg       	nonmovNat	5	rock      	30	rock04      	303	not_alive	0	still	0	natural 	1	n	0	0    	 	0.0	0	79.6075728000142	79.70748510002159	0.0999123000074178
86467	100	239	stimuli\nonmovNat\cliff\nmn_cliff04.jpg          	1	3	1	nmn_cliff04.jpg      	nonmovNat	5	cliff     	7	cliff04     	73	not_alive	0	still	0	natural 	1	n	0	0    	 	0.0	0	79.7575557000237	79.8574788999977	0.0999231999740004
88167	100	240	stimuli\animals\eagle\animal_eagle03.jpg         	1	4	1	animal_eagle03.jpg   	animals  	0	eagle     	13	eagle03     	132	alive    	1	moves	1	natural 	1	n	0	0    	 	0.0	0	81.4575723999878	81.5574440000346	0.0998716000467538
88317	100	241	stimuli\movNat\hotspring\mn_hotspring08.jpg      	1	4	1	mn_hotspring08.jpg   	movNat   	3	hotspring 	21	hotspring08 	217	not_alive	0	moves	1	natural 	1	n	0	0    	 	0.0	0	81.6075424000155	81.7074601000641	0.09991770004853599
88467	100	242	stimuli\animals\dog\animal_dog04.jpg             	1	4	1	animal_dog04.jpg     	animals  	0	dog       	11	dog04       	113	alive    	1	moves	1	natural 	1	n	0	0    	 	0.0	0	81.75755530002058	81.85745300003329	0.0998977000126615
88617	100	243	stimuli\movArt\bus\ma_bus04.jpg                  	1	4	1	ma_bus04.jpg         	movArt   	2	bus       	3	bus04       	33	not_alive	0	moves	1	artefact	0	n	0	0    	 	0.0	0	81.9075765999733	82.0074491000269	0.0998725000536069
88767	100	244	stimuli\animals\dog\animal_dog04.jpg             	1	4	1	animal_dog04.jpg     	animals  	0	dog       	11	dog04       	113	alive    	1	moves	1	natural 	1	n	0	0    	 	0.0	0	82.0575686000521	82.157445800025	0.0998771999729797
88917	100	245	stimuli\plant\flower\plant_flower06.jpg          	1	4	1	plant_flower06.jpg   	plant    	6	flower    	16	flower06    	165	alive    	1	still	0	natural 	1	n	0	0    	 	0.0	0	82.2075317000272	82.30744330002929	0.0999116000020876
89067	100	246	stimuli\animals2\whale\animal_whale02.jpg        	1	4	1	animal_whale02.jpg   	animals2 	1	whale     	39	whale02     	391	alive    	1	moves	1	natural 	1	n	0	0    	 	0.0	0	82.357542600017	82.45744699996429	0.0999043999472633
89217	100	247	stimuli\plant2\lemontree\plant_lemontree09.jpg   	1	4	1	plant_lemontree09.jpg	plant2   	7	lemontree 	22	lemontree09 	228	alive    	1	still	0	natural 	1	n	0	0    	 	0.0	0	82.5075310999528	82.6074410000583	0.0999099001055583
89367	100	248	stimuli\animals2\bee\animal_bee06.jpg            	1	4	1	animal_bee06.jpg     	animals2 	1	bee       	0	bee06       	5	alive    	1	moves	1	natural 	1	n	0	0    	 	0.0	0	82.65752790006809	82.7574484000215	0.0999204999534413
89517	100	249	stimuli\nonmovArt\bench\nma_bench10.jpg          	1	4	1	nma_bench10.jpg      	nonmovArt	4	bench     	1	bench10     	19	not_alive	0	still	0	artefact	0	n	0	0    	 	0.0	0	82.80752240004949	82.907435500063	0.0999131000135094
89667	100	250	stimuli\movNat\waterfall\mn_waterfall05.jpg      	1	4	1	mn_waterfall05.jpg   	movNat   	3	waterfall 	37	waterfall05 	374	not_alive	0	moves	1	natural 	1	n	0	0    	 	0.0	0	82.9575297000119	83.0574390999973	0.0999093999853357
89817	100	251	stimuli\animals\dolphin\animal_dolphin05.jpg     	1	4	1	animal_dolphin05.jpg 	animals  	0	dolphin   	12	dolphin05   	124	alive    	1	moves	1	natural 	1	n	0	0    	 	0.0	0	83.10751949995759	83.2074373000069	0.0999178000492975
89967	100	252	stimuli\plant2\clover\plant_clover06.jpg         	1	4	1	plant_clover06.jpg   	plant2   	7	clover    	9	clover06    	95	alive    	1	still	0	natural 	1	n	0	0    	 	0.0	0	83.2575353999855	83.3574354000157	0.0999000000301748
90117	100	253	stimuli\movNat\hotspring\mn_hotspring10.jpg      	1	4	1	mn_hotspring10.jpg   	movNat   	3	hotspring 	21	hotspring10 	219	not_alive	0	moves	1	natural 	1	n	1	0    	 	0.0	0	83.40752700006121	83.5074257999659	0.0998987999046221
90267	100	254	stimuli\plant\flower\plant_flower06.jpg          	1	4	1	plant_flower06.jpg   	plant    	6	flower    	16	flower06    	165	alive    	1	still	0	natural 	1	n	0	0    	 	0.0	0	83.5575176000129	83.657427099999	0.0999094999860972
90417	100	255	stimuli\nonmovArt\mug\nma_mug07.jpg              	1	4	1	nma_mug07.jpg        	nonmovArt	4	mug       	26	mug07       	266	not_alive	0	still	0	artefact	0	n	0	1    	f	0.292101299972273	1	83.70758799999021	83.80745129997379	0.0998632999835536
90567	100	256	stimuli\movNat\waves\mn_waves02.jpg              	1	4	1	mn_waves02.jpg       	movNat   	3	waves     	38	waves02     	381	not_alive	0	moves	1	natural 	1	n	0	0    	 	0.0	0	83.8575301000383	83.9574408000335	0.0999106999952346
90717	100	257	stimuli\movArt\helicopter\ma_helicopter03.jpg    	1	4	1	ma_helicopter03.jpg  	movArt   	2	helicopter	19	helicopter03	192	not_alive	0	moves	1	artefact	0	n	0	0    	 	0.0	0	84.0075128000462	84.10742959997151	0.0999167999252677
90867	100	258	stimuli\nonmovArt\lock\nma_lock01.jpg            	1	4	1	nma_lock01.jpg       	nonmovArt	4	lock      	24	lock01      	240	not_alive	0	still	0	artefact	0	n	0	0    	 	0.0	0	84.1575160999782	84.2574228000594	0.0999067000811919
91017	100	259	stimuli\animals\horse\animal_horse04.jpg         	1	4	1	animal_horse04.jpg   	animals  	0	horse     	20	horse04     	203	alive    	1	moves	1	natural 	1	n	0	0    	 	0.0	0	84.3075064000441	84.4074267999968	0.0999203999526798
91167	100	260	stimuli\animals\cat\animal_cat07.jpg             	1	4	1	animal_cat07.jpg     	animals  	0	cat       	6	cat07       	66	alive    	1	moves	1	natural 	1	n	0	0    	 	0.0	0	84.4575045000529	84.557416100055	0.0999116000020876
91317	100	261	stimuli\nonmovNat\cliff\nmn_cliff05.jpg          	1	4	1	nmn_cliff05.jpg      	nonmovNat	5	cliff     	7	cliff05     	74	not_alive	0	still	0	natural 	1	n	0	0    	 	0.0	0	84.60751120001079	84.7074262000388	0.0999150000279769
91467	100	262	stimuli\animals2\bee\animal_bee04.jpg            	1	4	1	animal_bee04.jpg     	animals2 	1	bee       	0	bee04       	3	alive    	1	moves	1	natural 	1	n	0	0    	 	0.0	0	84.7575012999587	84.8574076000368	0.0999063000781461
91617	100	263	stimuli\movArt\boat\ma_boat03.jpg                	1	4	1	ma_boat03.jpg        	movArt   	2	boat      	2	boat03      	22	not_alive	0	moves	1	artefact	0	n	0	0    	 	0.0	0	84.90749879996291	85.00744880002459	0.0999500000616535
91767	100	264	stimuli\nonmovNat\rock\nmn_rock05.jpg            	1	4	1	nmn_rock05.jpg       	nonmovNat	5	rock      	30	rock05      	304	not_alive	0	still	0	natural 	1	n	0	0    	 	0.0	0	85.057515499997	85.15740739996549	0.0998918999684974
91917	100	265	stimuli\nonmovNat\sand\nmn_sand09.jpg            	1	4	1	nmn_sand09.jpg       	nonmovNat	5	sand      	31	sand09      	318	not_alive	0	still	0	natural 	1	n	0	0    	 	0.0	0	85.20750520005821	85.3074092000024	0.0999039999442175
92067	100	266	stimuli\animals2\pigeon\animal_pigeon08.jpg      	1	4	1	animal_pigeon08.jpg  	animals2 	1	pigeon    	28	pigeon08    	287	alive    	1	moves	1	natural 	1	n	0	0    	 	0.0	0	85.357506499975	85.45744270004799	0.0999362000729888
92217	100	267	stimuli\plant2\fern\plant_fern02.jpg             	1	4	1	plant_fern02.jpg     	plant2   	7	fern      	14	fern02      	141	alive    	1	still	0	natural 	1	n	0	0    	 	0.0	0	85.50755520001991	85.60742670006579	0.0998715000459924
92367	100	268	stimuli\plant\cactus\plant_cactus06.jpg          	1	4	1	plant_cactus06.jpg   	plant    	6	cactus    	4	cactus06    	45	alive    	1	still	0	natural 	1	n	0	0    	 	0.0	0	85.65760669996959	85.75726139999459	0.0996547000249847
92517	100	269	stimuli\plant\grass\plant_grass02.jpg            	1	4	1	plant_grass02.jpg    	plant    	6	grass     	17	grass02     	171	alive    	1	still	0	natural 	1	n	0	0    	 	0.0	0	85.80753710004501	85.9074194000568	0.0998823000118136
92667	100	270	stimuli\movArt\helicopter\ma_helicopter03.jpg    	1	4	1	ma_helicopter03.jpg  	movArt   	2	helicopter	19	helicopter03	192	not_alive	0	moves	1	artefact	0	n	0	0    	 	0.0	0	85.9575262999861	86.05744590004909	0.0999196000630036
92817	100	271	stimuli\plant\tree\plant_tree09.jpg              	1	4	1	plant_tree09.jpg     	plant    	6	tree      	35	tree09      	358	alive    	1	still	0	natural 	1	n	0	0    	 	0.0	0	86.1075401999988	86.20744430006019	0.0999041000613942
92967	100	272	stimuli\nonmovNat\shell\nmn_shell02.jpg          	1	4	1	nmn_shell02.jpg      	nonmovNat	5	shell     	32	shell02     	321	not_alive	0	still	0	natural 	1	n	0	0    	 	0.0	0	86.25752810004629	86.3574455999769	0.0999174999305978
93117	100	273	stimuli\nonmovArt\headphones\nma_headphones04.jpg	1	4	1	nma_headphones04.jpg 	nonmovArt	4	headphones	18	headphones04	183	not_alive	0	still	0	artefact	0	n	0	0    	 	0.0	0	86.4075366000179	86.5074303000001	0.0998936999822035
93267	100	274	stimuli\animals\horse\animal_horse06.jpg         	1	4	1	animal_horse06.jpg   	animals  	0	horse     	20	horse06     	205	alive    	1	moves	1	natural 	1	n	0	0    	 	0.0	0	86.55754039995371	86.657439099974	0.09989870002027601
93417	100	275	stimuli\nonmovNat\crystal\nmn_crystal05.jpg      	1	4	1	nmn_crystal05.jpg    	nonmovNat	5	crystal   	10	crystal05   	104	not_alive	0	still	0	natural 	1	n	0	0    	 	0.0	0	86.70753390004391	86.807443000027	0.0999090999830514
93567	100	276	stimuli\plant\cactus\plant_cactus08.jpg          	1	4	1	plant_cactus08.jpg   	plant    	6	cactus    	4	cactus08    	47	alive    	1	still	0	natural 	1	n	0	0    	 	0.0	0	86.85754070000259	86.957425700035	0.0998850000323727
93717	100	277	stimuli\animals2\tiger\animal_tiger07.jpg        	1	4	1	animal_tiger07.jpg   	animals2 	1	tiger     	33	tiger07     	336	alive    	1	moves	1	natural 	1	n	0	0    	 	0.0	0	87.0075226000044	87.1074420000659	0.0999194000614807
93867	100	278	stimuli\movNat\waterfall\mn_waterfall04.jpg      	1	4	1	mn_waterfall04.jpg   	movNat   	3	waterfall 	37	waterfall04 	373	not_alive	0	moves	1	natural 	1	n	0	0    	 	0.0	0	87.1575355000096	87.257455999963	0.0999204999534413
94017	100	279	stimuli\movNat\river\mn_river05.jpg              	1	4	1	mn_river05.jpg       	movNat   	3	river     	29	river05     	294	not_alive	0	moves	1	natural 	1	n	0	0    	 	0.0	0	87.3075583999744	87.4075640999945	0.10000570002011999
94167	100	280	stimuli\animals2\lemur\animal_lemur04.jpg        	1	4	1	animal_lemur04.jpg   	animals2 	1	lemur     	23	lemur04     	233	alive    	1	moves	1	natural 	1	n	0	0    	 	0.0	0	87.4575344000477	87.55743280006571	0.0998984000179916
94317	100	281	stimuli\plant2\fern\plant_fern02.jpg             	1	4	1	plant_fern02.jpg     	plant2   	7	fern      	14	fern02      	141	alive    	1	still	0	natural 	1	n	0	0    	 	0.0	0	87.6074801000068	87.7074407000327	0.0999606000259518
94467	100	282	stimuli\movNat\fire\mn_fire04.jpg                	1	4	1	mn_fire04.jpg        	movNat   	3	fire      	15	fire04      	153	not_alive	0	moves	1	natural 	1	n	1	0    	 	0.0	0	87.75749270000959	87.8574287999654	0.0999360999558121
94617	100	283	stimuli\nonmovArt\clothespeg\nma_clothespeg08.jpg	1	4	1	nma_clothespeg08.jpg 	nonmovArt	4	clothespeg	8	clothespeg08	87	not_alive	0	still	0	artefact	0	n	0	0    	 	0.0	0	87.90750930004292	88.00740240002051	0.0998930999776348
94767	100	284	stimuli\animals2\pigeon\animal_pigeon05.jpg      	1	4	1	animal_pigeon05.jpg  	animals2 	1	pigeon    	28	pigeon05    	284	alive    	1	moves	1	natural 	1	n	1	1    	f	0.0006561999907717	1	88.0575285999803	88.1573839000193	0.0998553000390529
94917	100	285	stimuli\plant2\fern\plant_fern10.jpg             	1	4	1	plant_fern10.jpg     	plant2   	7	fern      	14	fern10      	149	alive    	1	still	0	natural 	1	n	0	0    	 	0.0	0	88.20747779996599	88.30740070005409	0.0999229000881314
95067	100	286	stimuli\animals\dolphin\animal_dolphin01.jpg     	1	4	1	animal_dolphin01.jpg 	animals  	0	dolphin   	12	dolphin01   	120	alive    	1	moves	1	natural 	1	n	0	1    	f	0.40005509997718	1	88.357471400057	88.45740379998459	0.0999323999276384
95217	100	287	stimuli\movArt\train\ma_train02.jpg              	1	4	1	ma_train02.jpg       	movArt   	2	train     	34	train02     	341	not_alive	0	moves	1	artefact	0	n	0	0    	 	0.0	0	88.5074620000087	88.60739070002458	0.0999287000158801
95367	100	288	stimuli\animals2\bee\animal_bee09.jpg            	1	4	1	animal_bee09.jpg     	animals2 	1	bee       	0	bee09       	8	alive    	1	moves	1	natural 	1	n	0	0    	 	0.0	0	88.6574450000189	88.75739250006158	0.0999475000426173
95517	100	289	stimuli\nonmovArt\bench\nma_bench07.jpg          	1	4	1	nma_bench07.jpg      	nonmovArt	4	bench     	1	bench07     	16	not_alive	0	still	0	artefact	0	n	0	0    	 	0.0	0	88.8074753000401	88.90740300004829	0.0999277000082656
95667	100	290	stimuli\plant\cactus\plant_cactus06.jpg          	1	4	1	plant_cactus06.jpg   	plant    	6	cactus    	4	cactus06    	45	alive    	1	still	0	natural 	1	n	0	0    	 	0.0	0	88.9574722000398	89.05744530004449	0.0999731000047177
95817	100	291	stimuli\plant\vine\plant_vine09.jpg              	1	4	1	plant_vine09.jpg     	plant    	6	vine      	36	vine09      	368	alive    	1	still	0	natural 	1	n	0	0    	 	0.0	0	89.10749009996651	89.20737700001341	0.0998869000468403
95967	100	292	stimuli\nonmovArt\headphones\nma_headphones06.jpg	1	4	1	nma_headphones06.jpg 	nonmovArt	4	headphones	18	headphones06	185	not_alive	0	still	0	artefact	0	n	0	0    	 	0.0	0	89.2574900999898	89.3573799000587	0.0998898000689223
96117	100	293	stimuli\plant\tree\plant_tree09.jpg              	1	4	1	plant_tree09.jpg     	plant    	6	tree      	35	tree09      	358	alive    	1	still	0	natural 	1	n	0	0    	 	0.0	0	89.4074805000564	89.50737150001801	0.0998909999616444
96267	100	294	stimuli\movNat\waterfall\mn_waterfall01.jpg      	1	4	1	mn_waterfall01.jpg   	movNat   	3	waterfall 	37	waterfall01 	370	not_alive	0	moves	1	natural 	1	n	1	0    	 	0.0	0	89.5574670999777	89.6573689000216	0.0999018000438809
96417	100	295	stimuli\plant2\moss\plant_moss06.jpg             	1	4	1	plant_moss06.jpg     	plant2   	7	moss      	25	moss06      	255	alive    	1	still	0	natural 	1	n	0	0    	 	0.0	0	89.7074725000421	89.8073625999968	0.0998900999547913
96567	100	296	stimuli\nonmovArt\mug\nma_mug05.jpg              	1	4	1	nma_mug05.jpg        	nonmovArt	4	mug       	26	mug05       	264	not_alive	0	still	0	artefact	0	n	0	1    	f	0.39196530007757296	1	89.85745000001042	89.95734830002769	0.0998983000172302
96717	100	297	stimuli\movNat\waves\mn_waves01.jpg              	1	4	1	mn_waves01.jpg       	movNat   	3	waves     	38	waves01     	380	not_alive	0	moves	1	natural 	1	n	0	0    	 	0.0	0	90.00747660000341	90.10737400001379	0.0998974000103771
96867	100	298	stimuli\movArt\helicopter\ma_helicopter03.jpg    	1	4	1	ma_helicopter03.jpg  	movArt   	2	helicopter	19	helicopter03	192	not_alive	0	moves	1	artefact	0	n	0	0    	 	0.0	0	90.1574529999634	90.2573719000211	0.0999189000576734
97017	100	299	stimuli\movArt\bus\ma_bus02.jpg                  	1	4	1	ma_bus02.jpg         	movArt   	2	bus       	3	bus02       	31	not_alive	0	moves	1	artefact	0	n	0	0    	 	0.0	0	90.3074626000598	90.4073787999805	0.099916199920699
97167	100	300	stimuli\plant2\lemontree\plant_lemontree03.jpg   	1	4	1	plant_lemontree03.jpg	plant2   	7	lemontree 	22	lemontree03 	222	alive    	1	still	0	natural 	1	n	0	0    	 	0.0	0	90.45746079995291	90.5573548000539	0.0998940001009032
97317	100	301	stimuli\nonmovNat\rock\nmn_rock09.jpg            	1	4	1	nmn_rock09.jpg       	nonmovNat	5	rock      	30	rock09      	308	not_alive	0	still	0	natural 	1	n	0	0    	 	0.0	0	90.6074582999572	90.70737530000041	0.0999170000432059
97467	100	302	stimuli\movArt\car\ma_car09.jpg                  	1	4	1	ma_car09.jpg         	movArt   	2	car       	5	car09       	58	not_alive	0	moves	1	artefact	0	n	0	0    	 	0.0	0	90.757450300036	90.8574646000052	0.10001429996918902
97617	100	303	stimuli\plant\flower\plant_flower03.jpg          	1	4	1	plant_flower03.jpg   	plant    	6	flower    	16	flower03    	162	alive    	1	still	0	natural 	1	n	0	0    	 	0.0	0	90.90746070002209	91.00742739997801	0.0999666999559849
97767	100	304	stimuli\animals2\whale\animal_whale03.jpg        	1	4	1	animal_whale03.jpg   	animals2 	1	whale     	39	whale03     	392	alive    	1	moves	1	natural 	1	n	0	0    	 	0.0	0	91.05745700001721	91.1573545000283	0.0998975000111386
97917	100	305	stimuli\nonmovArt\headphones\nma_headphones07.jpg	1	4	1	nma_headphones07.jpg 	nonmovArt	4	headphones	18	headphones07	186	not_alive	0	still	0	artefact	0	n	0	0    	 	0.0	0	91.2074639999773	91.3073713000631	0.0999073000857606
98067	100	306	stimuli\nonmovArt\lock\nma_lock08.jpg            	1	4	1	nma_lock08.jpg       	nonmovArt	4	lock      	24	lock08      	247	not_alive	0	still	0	artefact	0	n	0	0    	 	0.0	0	91.35744519997391	91.4573619000148	0.0999167000409215
98217	100	307	stimuli\plant\vine\plant_vine03.jpg              	1	4	1	plant_vine03.jpg     	plant    	6	vine      	36	vine03      	362	alive    	1	still	0	natural 	1	n	0	0    	 	0.0	0	91.507458499982	91.6073700999841	0.0999116000020876
98367	100	308	stimuli\movNat\hotspring\mn_hotspring01.jpg      	1	4	1	mn_hotspring01.jpg   	movNat   	3	hotspring 	21	hotspring01 	210	not_alive	0	moves	1	natural 	1	n	0	0    	 	0.0	0	91.6574551999802	91.75735169998372	0.0998965000035241
98517	100	309	stimuli\plant2\palmtree\plant_palmtree05.jpg     	1	4	1	plant_palmtree05.jpg 	plant2   	7	palmtree  	27	palmtree05  	274	alive    	1	still	0	natural 	1	n	0	0    	 	0.0	0	91.80745850002859	91.90735810005569	0.099899600027129
98667	100	310	stimuli\animals2\lemur\animal_lemur01.jpg        	1	4	1	animal_lemur01.jpg   	animals2 	1	lemur     	23	lemur01     	230	alive    	1	moves	1	natural 	1	n	0	0    	 	0.0	0	91.95745009998791	92.0573391000507	0.0998890000628307
98817	100	311	stimuli\animals\cat\animal_cat04.jpg             	1	4	1	animal_cat04.jpg     	animals  	0	cat       	6	cat04       	63	alive    	1	moves	1	natural 	1	n	0	0    	 	0.0	0	92.1074495000066	92.2073576999828	0.0999081999761983
98967	100	312	stimuli\nonmovArt\bench\nma_bench06.jpg          	1	4	1	nma_bench06.jpg      	nonmovArt	4	bench     	1	bench06     	15	not_alive	0	still	0	artefact	0	n	0	0    	 	0.0	0	92.25746290001551	92.35734180000141	0.0998788999859243
99117	100	313	stimuli\animals\dolphin\animal_dolphin01.jpg     	1	4	1	animal_dolphin01.jpg 	animals  	0	dolphin   	12	dolphin01   	120	alive    	1	moves	1	natural 	1	n	0	0    	 	0.0	0	92.40744209999691	92.5073514999822	0.0999093999853357
99267	100	314	stimuli\nonmovArt\mug\nma_mug01.jpg              	1	4	1	nma_mug01.jpg        	nonmovArt	4	mug       	26	mug01       	260	not_alive	0	still	0	artefact	0	n	0	0    	 	0.0	0	92.557469899999	92.65735420002599	0.0998843000270426
99417	100	315	stimuli\movNat\fire\mn_fire07.jpg                	1	4	1	mn_fire07.jpg        	movNat   	3	fire      	15	fire07      	156	not_alive	0	moves	1	natural 	1	n	0	0    	 	0.0	0	92.7074531000108	92.80735180003109	0.09989870002027601
99567	100	316	stimuli\animals2\whale\animal_whale06.jpg        	1	4	1	animal_whale06.jpg   	animals2 	1	whale     	39	whale06     	395	alive    	1	moves	1	natural 	1	n	0	0    	 	0.0	0	92.8574300999753	92.95733839995229	0.0999082999769598
99717	100	317	stimuli\animals2\tiger\animal_tiger03.jpg        	1	4	1	animal_tiger03.jpg   	animals2 	1	tiger     	33	tiger03     	332	alive    	1	moves	1	natural 	1	n	0	0    	 	0.0	0	93.0074351000367	93.10735059995208	0.0999154999153688
99867	100	318	stimuli\movNat\waves\mn_waves02.jpg              	1	4	1	mn_waves02.jpg       	movNat   	3	waves     	38	waves02     	381	not_alive	0	moves	1	natural 	1	n	0	0    	 	0.0	0	93.1574261999922	93.257364399964	0.0999381999718025
100017	100	319	stimuli\movArt\boat\ma_boat10.jpg                	1	4	1	ma_boat10.jpg        	movArt   	2	boat      	2	boat10      	29	not_alive	0	moves	1	artefact	0	n	0	0    	 	0.0	0	93.3074033999583	93.4073307999643	0.0999274000059813
107934	100	320	stimuli\plant2\palmtree\plant_palmtree07.jpg     	1	5	1	plant_palmtree07.jpg 	plant2   	7	palmtree  	27	palmtree07  	276	alive    	1	still	0	natural 	1	n	0	0    	 	0.0	0	101.22404020000201	101.323925800039	0.0998856000369414
108084	100	321	stimuli\plant2\moss\plant_moss02.jpg             	1	5	1	plant_moss02.jpg     	plant2   	7	moss      	25	moss02      	251	alive    	1	still	0	natural 	1	n	0	0    	 	0.0	0	101.374012100045	101.473934400012	0.0999222999671474
108234	100	322	stimuli\plant\vine\plant_vine01.jpg              	1	5	1	plant_vine01.jpg     	plant    	6	vine      	36	vine01      	360	alive    	1	still	0	natural 	1	n	0	0    	 	0.0	0	101.524021200021	101.623930100002	0.0999088999815285
108384	100	323	stimuli\nonmovArt\clothespeg\nma_clothespeg09.jpg	1	5	1	nma_clothespeg09.jpg 	nonmovArt	4	clothespeg	8	clothespeg09	88	not_alive	0	still	0	artefact	0	n	0	0    	 	0.0	0	101.674027999979	101.773940199986	0.0999122000066563
108534	100	324	stimuli\movArt\train\ma_train08.jpg              	1	5	1	ma_train08.jpg       	movArt   	2	train     	34	train08     	347	not_alive	0	moves	1	artefact	0	n	0	0    	 	0.0	0	101.82402629999001	101.92392450000601	0.0998982000164687
108684	100	325	stimuli\nonmovNat\crystal\nmn_crystal05.jpg      	1	5	1	nmn_crystal05.jpg    	nonmovNat	5	crystal   	10	crystal05   	104	not_alive	0	still	0	natural 	1	n	0	0    	 	0.0	0	101.974030300044	102.073920199997	0.0998898999532684
108834	100	326	stimuli\nonmovArt\clothespeg\nma_clothespeg06.jpg	1	5	1	nma_clothespeg06.jpg 	nonmovArt	4	clothespeg	8	clothespeg06	85	not_alive	0	still	0	artefact	0	n	0	0    	 	0.0	0	102.124025200028	102.22393049998199	0.0999052999541163
108984	100	327	stimuli\movArt\train\ma_train06.jpg              	1	5	1	ma_train06.jpg       	movArt   	2	train     	34	train06     	345	not_alive	0	moves	1	artefact	0	n	0	0    	 	0.0	0	102.274021600024	102.373927299981	0.0999056999571621
109134	100	328	stimuli\plant2\clover\plant_clover02.jpg         	1	5	1	plant_clover02.jpg   	plant2   	7	clover    	9	clover02    	91	alive    	1	still	0	natural 	1	n	0	0    	 	0.0	0	102.42402939999	102.523961400031	0.09993200004100801
109284	100	329	stimuli\movArt\car\ma_car09.jpg                  	1	5	1	ma_car09.jpg         	movArt   	2	car       	5	car09       	58	not_alive	0	moves	1	artefact	0	n	0	0    	 	0.0	0	102.574032800039	102.673979699961	0.0999468999216333
109434	100	330	stimuli\movNat\river\mn_river08.jpg              	1	5	1	mn_river08.jpg       	movNat   	3	river     	29	river08     	297	not_alive	0	moves	1	natural 	1	n	0	0    	 	0.0	0	102.724127499969	102.82392140000601	0.0997939000371843
109584	100	331	stimuli\animals\cat\animal_cat01.jpg             	1	5	1	animal_cat01.jpg     	animals  	0	cat       	6	cat01       	60	alive    	1	moves	1	natural 	1	n	0	0    	 	0.0	0	102.87400950002501	102.973918200005	0.0999086999800056
109734	100	332	stimuli\animals\horse\animal_horse01.jpg         	1	5	1	animal_horse01.jpg   	animals  	0	horse     	20	horse01     	200	alive    	1	moves	1	natural 	1	n	0	0    	 	0.0	0	103.024015999981	103.123879499966	0.0998634999850764
109884	100	333	stimuli\plant2\clover\plant_clover03.jpg         	1	5	1	plant_clover03.jpg   	plant2   	7	clover    	9	clover03    	92	alive    	1	still	0	natural 	1	n	0	0    	 	0.0	0	103.17401610000499	103.273907999974	0.0998918999684974
110034	100	334	stimuli\animals\eagle\animal_eagle10.jpg         	1	5	1	animal_eagle10.jpg   	animals  	0	eagle     	13	eagle10     	139	alive    	1	moves	1	natural 	1	n	0	0    	 	0.0	0	103.32401340000798	103.42389730003201	0.0998839000239968
110184	100	335	stimuli\animals2\lemur\animal_lemur07.jpg        	1	5	1	animal_lemur07.jpg   	animals2 	1	lemur     	23	lemur07     	236	alive    	1	moves	1	natural 	1	n	0	0    	 	0.0	0	103.474005599972	103.57392420002701	0.0999186000553891
110334	100	336	stimuli\movArt\bus\ma_bus09.jpg                  	1	5	1	ma_bus09.jpg         	movArt   	2	bus       	3	bus09       	38	not_alive	0	moves	1	artefact	0	n	0	0    	 	0.0	0	103.62399930006399	103.723910500063	0.0999111999990418
110484	100	337	stimuli\nonmovNat\shell\nmn_shell03.jpg          	1	5	1	nmn_shell03.jpg      	nonmovNat	5	shell     	32	shell03     	322	not_alive	0	still	0	natural 	1	n	0	0    	 	0.0	0	103.77401100006	103.873906600056	0.09989559999667098
110634	100	338	stimuli\animals\eagle\animal_eagle09.jpg         	1	5	1	animal_eagle09.jpg   	animals  	0	eagle     	13	eagle09     	138	alive    	1	moves	1	natural 	1	n	0	0    	 	0.0	0	103.923999299994	104.023907999974	0.0999086999800056
110784	100	339	stimuli\nonmovNat\sand\nmn_sand05.jpg            	1	5	1	nmn_sand05.jpg       	nonmovNat	5	sand      	31	sand05      	314	not_alive	0	still	0	natural 	1	n	0	0    	 	0.0	0	104.07400420005399	104.173906999989	0.0999027999350801
110934	100	340	stimuli\plant\tree\plant_tree08.jpg              	1	5	1	plant_tree08.jpg     	plant    	6	tree      	35	tree08      	357	alive    	1	still	0	natural 	1	n	0	0    	 	0.0	0	104.223995800014	104.32392190000999	0.0999260999960824
111084	100	341	stimuli\animals2\tiger\animal_tiger03.jpg        	1	5	1	animal_tiger03.jpg   	animals2 	1	tiger     	33	tiger03     	332	alive    	1	moves	1	natural 	1	n	0	0    	 	0.0	0	104.37399110000099	104.47397160006201	0.0999805000610649
111234	100	342	stimuli\plant2\palmtree\plant_palmtree04.jpg     	1	5	1	plant_palmtree04.jpg 	plant2   	7	palmtree  	27	palmtree04  	273	alive    	1	still	0	natural 	1	n	0	0    	 	0.0	0	104.524012899958	104.623897299985	0.09988440002780401
111384	100	343	stimuli\nonmovNat\cliff\nmn_cliff08.jpg          	1	5	1	nmn_cliff08.jpg      	nonmovNat	5	cliff     	7	cliff08     	77	not_alive	0	still	0	natural 	1	n	0	0    	 	0.0	0	104.674006600049	104.773911199998	0.0999045999487862
111534	100	344	stimuli\animals2\pigeon\animal_pigeon07.jpg      	1	5	1	animal_pigeon07.jpg  	animals2 	1	pigeon    	28	pigeon07    	286	alive    	1	moves	1	natural 	1	n	0	0    	 	0.0	0	104.823988500051	104.923903499963	0.0999149999115616
111684	100	345	stimuli\plant2\lemontree\plant_lemontree02.jpg   	1	5	1	plant_lemontree02.jpg	plant2   	7	lemontree 	22	lemontree02 	221	alive    	1	still	0	natural 	1	n	0	0    	 	0.0	0	104.973988899961	105.07388859998899	0.0998997000278905
111834	100	346	stimuli\plant\grass\plant_grass04.jpg            	1	5	1	plant_grass04.jpg    	plant    	6	grass     	17	grass04     	173	alive    	1	still	0	natural 	1	n	0	0    	 	0.0	0	105.123987799976	105.223897799966	0.0999099999899044
111984	100	347	stimuli\movNat\fire\mn_fire02.jpg                	1	5	1	mn_fire02.jpg        	movNat   	3	fire      	15	fire02      	151	not_alive	0	moves	1	natural 	1	n	0	0    	 	0.0	0	105.273991000024	105.37389280006799	0.0999018000438809
112134	100	348	stimuli\nonmovNat\sand\nmn_sand03.jpg            	1	5	1	nmn_sand03.jpg       	nonmovNat	5	sand      	31	sand03      	312	not_alive	0	still	0	natural 	1	n	0	0    	 	0.0	0	105.42396819999	105.523895899998	0.0999277000082656
112284	100	349	stimuli\movArt\boat\ma_boat05.jpg                	1	5	1	ma_boat05.jpg        	movArt   	2	boat      	2	boat05      	24	not_alive	0	moves	1	artefact	0	n	0	0    	 	0.0	0	105.573982000002	105.67390209995199	0.0999200999503955
112434	100	350	stimuli\plant2\moss\plant_moss10.jpg             	1	5	1	plant_moss10.jpg     	plant2   	7	moss      	25	moss10      	259	alive    	1	still	0	natural 	1	n	0	0    	 	0.0	0	105.72398560005199	105.82389400003001	0.0999083999777212
112584	100	351	stimuli\movNat\river\mn_river02.jpg              	1	5	1	mn_river02.jpg       	movNat   	3	river     	29	river02     	291	not_alive	0	moves	1	natural 	1	n	0	0    	 	0.0	0	105.874006900005	105.973117499962	0.0991105999564752
112733	100	352	stimuli\nonmovNat\shell\nmn_shell10.jpg          	1	5	1	nmn_shell10.jpg      	nonmovNat	5	shell     	32	shell10     	329	not_alive	0	still	0	natural 	1	n	0	0    	 	0.0	0	106.023128599976	106.123120400007	0.0999918000306934
112883	100	353	stimuli\nonmovNat\cliff\nmn_cliff07.jpg          	1	5	1	nmn_cliff07.jpg      	nonmovNat	5	cliff     	7	cliff07     	76	not_alive	0	still	0	natural 	1	n	0	0    	 	0.0	0	106.17312759999201	106.273149300017	0.100021700025536
113033	100	354	stimuli\nonmovNat\rock\nmn_rock06.jpg            	1	5	1	nmn_rock06.jpg       	nonmovNat	5	rock      	30	rock06      	305	not_alive	0	still	0	natural 	1	n	0	0    	 	0.0	0	106.323127400014	106.423117600032	0.0999902000185102
113183	100	355	stimuli\nonmovNat\crystal\nmn_crystal10.jpg      	1	5	1	nmn_crystal10.jpg    	nonmovNat	5	crystal   	10	crystal10   	109	not_alive	0	still	0	natural 	1	n	0	0    	 	0.0	0	106.47312910004999	106.57311520003701	0.0999860999872908
113333	100	356	stimuli\nonmovArt\lock\nma_lock07.jpg            	1	5	1	nma_lock07.jpg       	nonmovArt	4	lock      	24	lock07      	246	not_alive	0	still	0	artefact	0	n	0	0    	 	0.0	0	106.62312600005	106.72311380004999	0.0999878000002354
113483	100	357	stimuli\movArt\car\ma_car03.jpg                  	1	5	1	ma_car03.jpg         	movArt   	2	car       	5	car03       	52	not_alive	0	moves	1	artefact	0	n	1	0    	 	0.0	0	106.77312280004801	106.873113100068	0.0999903000192716
113633	100	358	stimuli\animals\dog\animal_dog09.jpg             	1	5	1	animal_dog09.jpg     	animals  	0	dog       	11	dog09       	118	alive    	1	moves	1	natural 	1	n	0	0    	 	0.0	0	106.923120500054	107.023111699964	0.0999911999097094
113784	100	359	stimuli\plant\grass\plant_grass03.jpg            	1	5	1	plant_grass03.jpg    	plant    	6	grass     	17	grass03     	172	alive    	1	still	0	natural 	1	n	0	1    	f	0.392923099920154	1	107.074007399962	107.173111799988	0.0991044000256806
113933	100	360	stimuli\nonmovNat\sand\nmn_sand04.jpg            	1	5	1	nmn_sand04.jpg       	nonmovNat	5	sand      	31	sand04      	313	not_alive	0	still	0	natural 	1	n	1	0    	 	0.0	0	107.223118299968	107.32310769998001	0.0999894000124186
114083	100	361	stimuli\plant2\fern\plant_fern03.jpg             	1	5	1	plant_fern03.jpg     	plant2   	7	fern      	14	fern03      	142	alive    	1	still	0	natural 	1	n	0	0    	 	0.0	0	107.373119299998	107.473105699988	0.0999863999895751
114233	100	362	stimuli\nonmovArt\clothespeg\nma_clothespeg01.jpg	1	5	1	nma_clothespeg01.jpg 	nonmovArt	4	clothespeg	8	clothespeg01	80	not_alive	0	still	0	artefact	0	n	0	1    	f	0.391973500023596	1	107.523115499993	107.62310620001499	0.0999907000223174
114383	100	363	stimuli\plant\flower\plant_flower08.jpg          	1	5	1	plant_flower08.jpg   	plant    	6	flower    	16	flower08    	167	alive    	1	still	0	natural 	1	n	0	0    	 	0.0	0	107.673114500009	107.773104600026	0.0999901000177487
114533	100	364	stimuli\plant2\clover\plant_clover10.jpg         	1	5	1	plant_clover10.jpg   	plant2   	7	clover    	9	clover10    	99	alive    	1	still	0	natural 	1	n	0	0    	 	0.0	0	107.82311390002701	107.92310480005101	0.0999909000238403
114683	100	365	stimuli\movArt\helicopter\ma_helicopter08.jpg    	1	5	1	ma_helicopter08.jpg  	movArt   	2	helicopter	19	helicopter08	197	not_alive	0	moves	1	artefact	0	n	0	0    	 	0.0	0	107.973112100037	108.073121299967	0.100009199930355
114833	100	366	stimuli\movArt\bus\ma_bus03.jpg                  	1	5	1	ma_bus03.jpg         	movArt   	2	bus       	3	bus03       	32	not_alive	0	moves	1	artefact	0	n	0	0    	 	0.0	0	108.123111100052	108.223100800067	0.0999897000147029
114983	100	367	stimuli\plant2\fern\plant_fern04.jpg             	1	5	1	plant_fern04.jpg     	plant2   	7	fern      	14	fern04      	143	alive    	1	still	0	natural 	1	n	0	0    	 	0.0	0	108.27310780005101	108.37309849995701	0.0999906999059021
115133	100	368	stimuli\nonmovNat\sand\nmn_sand08.jpg            	1	5	1	nmn_sand08.jpg       	nonmovNat	5	sand      	31	sand08      	317	not_alive	0	still	0	natural 	1	n	0	0    	 	0.0	0	108.423106500064	108.523097499972	0.0999909999081865
115283	100	369	stimuli\plant2\palmtree\plant_palmtree09.jpg     	1	5	1	plant_palmtree09.jpg 	plant2   	7	palmtree  	27	palmtree09  	278	alive    	1	still	0	natural 	1	n	0	0    	 	0.0	0	108.573106099968	108.67309419997	0.0999881000025198
115433	100	370	stimuli\plant\cactus\plant_cactus07.jpg          	1	5	1	plant_cactus07.jpg   	plant    	6	cactus    	4	cactus07    	46	alive    	1	still	0	natural 	1	n	0	0    	 	0.0	0	108.72310439997801	108.823097400018	0.0999930000398308
115583	100	371	stimuli\plant\grass\plant_grass01.jpg            	1	5	1	plant_grass01.jpg    	plant    	6	grass     	17	grass01     	170	alive    	1	still	0	natural 	1	n	0	0    	 	0.0	0	108.87310570001101	108.97309230000201	0.099986599991098
115733	100	372	stimuli\animals\dog\animal_dog05.jpg             	1	5	1	animal_dog05.jpg     	animals  	0	dog       	11	dog05       	114	alive    	1	moves	1	natural 	1	n	0	0    	 	0.0	0	109.023102600011	109.12311939999901	0.100016799988225
115883	100	373	stimuli\plant\tree\plant_tree08.jpg              	1	5	1	plant_tree08.jpg     	plant    	6	tree      	35	tree08      	357	alive    	1	still	0	natural 	1	n	0	0    	 	0.0	0	109.17311740003099	109.273093500058	0.0999761000275612
116033	100	374	stimuli\plant2\clover\plant_clover07.jpg         	1	5	1	plant_clover07.jpg   	plant2   	7	clover    	9	clover07    	96	alive    	1	still	0	natural 	1	n	0	0    	 	0.0	0	109.32310989999701	109.423090600059	0.0999807000625878
116183	100	375	stimuli\movNat\hotspring\mn_hotspring06.jpg      	1	5	1	mn_hotspring06.jpg   	movNat   	3	hotspring 	21	hotspring06 	215	not_alive	0	moves	1	natural 	1	n	0	0    	 	0.0	0	109.473098100047	109.573089499958	0.0999913999112322
116333	100	376	stimuli\nonmovArt\headphones\nma_headphones07.jpg	1	5	1	nma_headphones07.jpg 	nonmovArt	4	headphones	18	headphones07	186	not_alive	0	still	0	artefact	0	n	0	0    	 	0.0	0	109.62309710006201	109.723084000056	0.0999868999933824
116483	100	377	stimuli\plant\flower\plant_flower01.jpg          	1	5	1	plant_flower01.jpg   	plant    	6	flower    	16	flower01    	160	alive    	1	still	0	natural 	1	n	0	0    	 	0.0	0	109.77309939998699	109.873086699983	0.0999872999964282
116633	100	378	stimuli\animals2\lemur\animal_lemur03.jpg        	1	5	1	animal_lemur03.jpg   	animals2 	1	lemur     	23	lemur03     	232	alive    	1	moves	1	natural 	1	n	0	0    	 	0.0	0	109.923094599973	110.023085299996	0.0999907000223174
116783	100	379	stimuli\movNat\fire\mn_fire10.jpg                	1	5	1	mn_fire10.jpg        	movNat   	3	fire      	15	fire10      	159	not_alive	0	moves	1	natural 	1	n	0	0    	 	0.0	0	110.07309560000401	110.173082099995	0.0999864999903366
116933	100	380	stimuli\animals\cat\animal_cat04.jpg             	1	5	1	animal_cat04.jpg     	animals  	0	cat       	6	cat04       	63	alive    	1	moves	1	natural 	1	n	0	0    	 	0.0	0	110.22309390001499	110.323078999994	0.0999850999796763
117083	100	381	stimuli\nonmovNat\cliff\nmn_cliff06.jpg          	1	5	1	nmn_cliff06.jpg      	nonmovNat	5	cliff     	7	cliff06     	75	not_alive	0	still	0	natural 	1	n	0	0    	 	0.0	0	110.373089100001	110.473078200012	0.0999891000101342
117233	100	382	stimuli\plant2\lemontree\plant_lemontree02.jpg   	1	5	1	plant_lemontree02.jpg	plant2   	7	lemontree 	22	lemontree02 	221	alive    	1	still	0	natural 	1	n	0	0    	 	0.0	0	110.52309509995399	110.62307740002899	0.09998230007477099
117383	100	383	stimuli\nonmovNat\crystal\nmn_crystal06.jpg      	1	5	1	nmn_crystal06.jpg    	nonmovNat	5	crystal   	10	crystal06   	105	not_alive	0	still	0	natural 	1	n	0	0    	 	0.0	0	110.67308540001999	110.773076400044	0.0999910000246018
117533	100	384	stimuli\movArt\helicopter\ma_helicopter02.jpg    	1	5	1	ma_helicopter02.jpg  	movArt   	2	helicopter	19	helicopter02	191	not_alive	0	moves	1	artefact	0	n	0	0    	 	0.0	0	110.823085300042	110.923075100058	0.0999898000154644
117683	100	385	stimuli\movNat\fire\mn_fire10.jpg                	1	5	1	mn_fire10.jpg        	movNat   	3	fire      	15	fire10      	159	not_alive	0	moves	1	natural 	1	n	0	0    	 	0.0	0	110.97310499998301	111.073073899955	0.0999688999727368
117833	100	386	stimuli\plant\vine\plant_vine10.jpg              	1	5	1	plant_vine10.jpg     	plant    	6	vine      	36	vine10      	369	alive    	1	still	0	natural 	1	n	0	0    	 	0.0	0	111.123083399958	111.223072199966	0.0999888000078499
117983	100	387	stimuli\animals\dolphin\animal_dolphin02.jpg     	1	5	1	animal_dolphin02.jpg 	animals  	0	dolphin   	12	dolphin02   	121	alive    	1	moves	1	natural 	1	n	0	0    	 	0.0	0	111.273084199987	111.373071299982	0.0999870999949052
118133	100	388	stimuli\plant\flower\plant_flower07.jpg          	1	5	1	plant_flower07.jpg   	plant    	6	flower    	16	flower07    	166	alive    	1	still	0	natural 	1	n	0	0    	 	0.0	0	111.42308049998199	111.52306829998301	0.0999878000002354
118283	100	389	stimuli\nonmovArt\mug\nma_mug07.jpg              	1	5	1	nma_mug07.jpg        	nonmovArt	4	mug       	26	mug07       	266	not_alive	0	still	0	artefact	0	n	0	0    	 	0.0	0	111.57308820006399	111.673070300021	0.0999820999568328
118433	100	390	stimuli\animals\cat\animal_cat09.jpg             	1	5	1	animal_cat09.jpg     	animals  	0	cat       	6	cat09       	68	alive    	1	moves	1	natural 	1	n	0	0    	 	0.0	0	111.72307780000799	111.823068500031	0.0999907000223174
118583	100	391	stimuli\movNat\waves\mn_waves10.jpg              	1	5	1	mn_waves10.jpg       	movNat   	3	waves     	38	waves10     	389	not_alive	0	moves	1	natural 	1	n	0	0    	 	0.0	0	111.873077000026	111.973065700033	0.0999887000070884
118733	100	392	stimuli\animals2\lemur\animal_lemur07.jpg        	1	5	1	animal_lemur07.jpg   	animals2 	1	lemur     	23	lemur07     	236	alive    	1	moves	1	natural 	1	n	0	0    	 	0.0	0	112.023075200035	112.123064100044	0.0999889000086113
118883	100	393	stimuli\nonmovNat\sand\nmn_sand10.jpg            	1	5	1	nmn_sand10.jpg       	nonmovNat	5	sand      	31	sand10      	319	not_alive	0	still	0	natural 	1	n	0	0    	 	0.0	0	112.173073400045	112.27306160004801	0.0999882000032812
119033	100	394	stimuli\nonmovArt\lock\nma_lock02.jpg            	1	5	1	nma_lock02.jpg       	nonmovArt	4	lock      	24	lock02      	241	not_alive	0	still	0	artefact	0	n	0	0    	 	0.0	0	112.32307160005399	112.42306090006599	0.0999893000116571
119183	100	395	stimuli\animals2\bee\animal_bee04.jpg            	1	5	1	animal_bee04.jpg     	animals2 	1	bee       	0	bee04       	3	alive    	1	moves	1	natural 	1	n	0	0    	 	0.0	0	112.473068700056	112.57305919996	0.0999904999043792
119333	100	396	stimuli\nonmovNat\rock\nmn_rock05.jpg            	1	5	1	nmn_rock05.jpg       	nonmovNat	5	rock      	30	rock05      	304	not_alive	0	still	0	natural 	1	n	0	0    	 	0.0	0	112.62307039997499	112.723059599986	0.0999892000108957
119483	100	397	stimuli\nonmovArt\mug\nma_mug02.jpg              	1	5	1	nma_mug02.jpg        	nonmovArt	4	mug       	26	mug02       	261	not_alive	0	still	0	artefact	0	n	0	0    	 	0.0	0	112.77306859998501	112.873056899989	0.0999883000040426
119633	100	398	stimuli\animals2\bee\animal_bee02.jpg            	1	5	1	animal_bee02.jpg     	animals2 	1	bee       	0	bee02       	1	alive    	1	moves	1	natural 	1	n	0	0    	 	0.0	0	112.9230675	113.023056000005	0.0999885000055655
119783	100	399	stimuli\movNat\river\mn_river07.jpg              	1	5	1	mn_river07.jpg       	movNat   	3	river     	29	river07     	296	not_alive	0	moves	1	natural 	1	n	0	0    	 	0.0	0	113.073065400007	113.173054600018	0.0999892000108957
121999	100	400	stimuli\nonmovArt\bench\nma_bench02.jpg          	1	6	1	nma_bench02.jpg      	nonmovArt	4	bench     	1	bench02     	11	not_alive	0	still	0	artefact	0	n	0	0    	 	0.0	0	115.28971589996901	115.38970239996	0.0999864999903366
122149	100	401	stimuli\nonmovArt\headphones\nma_headphones01.jpg	1	6	1	nma_headphones01.jpg 	nonmovArt	4	headphones	18	headphones01	180	not_alive	0	still	0	artefact	0	n	0	0    	 	0.0	0	115.439715799992	115.539700099966	0.0999842999735847
122299	100	402	stimuli\animals2\whale\animal_whale07.jpg        	1	6	1	animal_whale07.jpg   	animals2 	1	whale     	39	whale07     	396	alive    	1	moves	1	natural 	1	n	0	0    	 	0.0	0	115.589705000049	115.68969569995501	0.0999906999059021
122449	100	403	stimuli\nonmovArt\bench\nma_bench03.jpg          	1	6	1	nma_bench03.jpg      	nonmovArt	4	bench     	1	bench03     	12	not_alive	0	still	0	artefact	0	n	0	0    	 	0.0	0	115.73970679997	115.839696299983	0.09998950001317998
122599	100	404	stimuli\movArt\car\ma_car08.jpg                  	1	6	1	ma_car08.jpg         	movArt   	2	car       	5	car08       	57	not_alive	0	moves	1	artefact	0	n	0	0    	 	0.0	0	115.88970299996402	115.98969349998501	0.0999905000207945
122749	100	405	stimuli\nonmovArt\lock\nma_lock01.jpg            	1	6	1	nma_lock01.jpg       	nonmovArt	4	lock      	24	lock01      	240	not_alive	0	still	0	artefact	0	n	0	0    	 	0.0	0	116.03970319998899	116.139695600024	0.0999924000352621
122899	100	406	stimuli\animals2\whale\animal_whale04.jpg        	1	6	1	animal_whale04.jpg   	animals2 	1	whale     	39	whale04     	393	alive    	1	moves	1	natural 	1	n	0	0    	 	0.0	0	116.18970260000799	116.289691200014	0.09998860000632699
123049	100	407	stimuli\nonmovNat\crystal\nmn_crystal06.jpg      	1	6	1	nmn_crystal06.jpg    	nonmovNat	5	crystal   	10	crystal06   	105	not_alive	0	still	0	natural 	1	n	0	0    	 	0.0	0	116.339700500015	116.439690400031	0.0999899000162258
123199	100	408	stimuli\movNat\waterfall\mn_waterfall10.jpg      	1	6	1	mn_waterfall10.jpg   	movNat   	3	waterfall 	37	waterfall10 	379	not_alive	0	moves	1	natural 	1	n	0	0    	 	0.0	0	116.489699100028	116.58971179998501	0.100012699957006
123349	100	409	stimuli\movNat\waterfall\mn_waterfall02.jpg      	1	6	1	mn_waterfall02.jpg   	movNat   	3	waterfall 	37	waterfall02 	371	not_alive	0	moves	1	natural 	1	n	0	0    	 	0.0	0	116.639696500031	116.739688200061	0.0999917000299319
123499	100	410	stimuli\animals\eagle\animal_eagle02.jpg         	1	6	1	animal_eagle02.jpg   	animals  	0	eagle     	13	eagle02     	131	alive    	1	moves	1	natural 	1	n	0	0    	 	0.0	0	116.789697500062	116.889687399962	0.0999898998998105
123649	100	411	stimuli\movArt\boat\ma_boat07.jpg                	1	6	1	ma_boat07.jpg        	movArt   	2	boat      	2	boat07      	26	not_alive	0	moves	1	artefact	0	n	0	0    	 	0.0	0	116.93969440006201	117.03968549997101	0.0999910999089479
123799	100	412	stimuli\plant\vine\plant_vine05.jpg              	1	6	1	plant_vine05.jpg     	plant    	6	vine      	36	vine05      	364	alive    	1	still	0	natural 	1	n	0	0    	 	0.0	0	117.08969239995301	117.189697099966	0.100004700012505
123949	100	413	stimuli\animals\cat\animal_cat03.jpg             	1	6	1	animal_cat03.jpg     	animals  	0	cat       	6	cat03       	62	alive    	1	moves	1	natural 	1	n	0	0    	 	0.0	0	117.23969540000002	117.33968269999599	0.0999872999964282
124100	100	414	stimuli\movArt\car\ma_car10.jpg                  	1	6	1	ma_car10.jpg         	movArt   	2	car       	5	car10       	59	not_alive	0	moves	1	artefact	0	n	0	0    	 	0.0	0	117.390547599993	117.49044860003099	0.0999010000377893
124250	100	415	stimuli\animals\dolphin\animal_dolphin08.jpg     	1	6	1	animal_dolphin08.jpg 	animals  	0	dolphin   	12	dolphin08   	127	alive    	1	moves	1	natural 	1	n	0	0    	 	0.0	0	117.540540599963	117.64045229996599	0.0999117000028491
124400	100	416	stimuli\movArt\bus\ma_bus08.jpg                  	1	6	1	ma_bus08.jpg         	movArt   	2	bus       	3	bus08       	37	not_alive	0	moves	1	artefact	0	n	0	0    	 	0.0	0	117.69053739996201	117.79045249998998	0.0999151000287383
124550	100	417	stimuli\nonmovNat\cliff\nmn_cliff06.jpg          	1	6	1	nmn_cliff06.jpg      	nonmovNat	5	cliff     	7	cliff06     	75	not_alive	0	still	0	natural 	1	n	0	0    	 	0.0	0	117.840537599986	117.940444499953	0.0999068999662995
124700	100	418	stimuli\nonmovArt\mug\nma_mug04.jpg              	1	6	1	nma_mug04.jpg        	nonmovArt	4	mug       	26	mug04       	263	not_alive	0	still	0	artefact	0	n	0	0    	 	0.0	0	117.990528500057	118.090445299982	0.0999167999252677
