onset	duration	eventnumber	stimulus_file	blockno	trialno	is_faststream	stim	stim_category	category_number	exemplar	exemplar_number	image_name	image_number	aliveness	aliveness_bin	movement	movement_bin	naturalness	naturalness_bin	response_hand_moves	istarget	response	keypressed	rt	correct	time_stimon	time_stimoff	stimdur
191479	100	0	stimuli\nonmovNat\rock\nmn_rock09.jpg            	1	1	1	nmn_rock09.jpg       	nonmovNat	5	rock      	30	rock09      	308	not_alive	0	still	0	natural 	1	n	0	0    	 	0.0	0	208.421805099933	208.52178720000703	0.0999821000732481
191629	100	1	stimuli\animals\horse\animal_horse05.jpg         	1	1	1	animal_horse05.jpg   	animals  	0	horse     	20	horse05     	204	alive    	1	moves	1	natural 	1	n	0	0    	 	0.0	0	208.571808799985	208.671793099958	0.0999842999735847
191779	100	2	stimuli\plant2\moss\plant_moss10.jpg             	1	1	1	plant_moss10.jpg     	plant2   	7	moss      	25	moss10      	259	alive    	1	still	0	natural 	1	n	0	0    	 	0.0	0	208.721796600032	208.821787499939	0.099990899907425
191929	100	3	stimuli\nonmovNat\cliff\nmn_cliff03.jpg          	1	1	1	nmn_cliff03.jpg      	nonmovNat	5	cliff     	7	cliff03     	72	not_alive	0	still	0	natural 	1	n	0	0    	 	0.0	0	208.87179879995497	208.971787399962	0.09998860000632699
192079	100	4	stimuli\movArt\train\ma_train06.jpg              	1	1	1	ma_train06.jpg       	movArt   	2	train     	34	train06     	345	not_alive	0	moves	1	artefact	0	n	0	0    	 	0.0	0	209.02179749996898	209.121782999951	0.0999854999827221
192229	100	5	stimuli\movArt\bus\ma_bus05.jpg                  	1	1	1	ma_bus05.jpg         	movArt   	2	bus       	3	bus05       	34	not_alive	0	moves	1	artefact	0	n	0	0    	 	0.0	0	209.171794499969	209.271806099918	0.10001159994863
192379	100	6	stimuli\nonmovNat\shell\nmn_shell01.jpg          	1	1	1	nmn_shell01.jpg      	nonmovNat	5	shell     	32	shell01     	320	not_alive	0	still	0	natural 	1	n	0	0    	 	0.0	0	209.321800199919	209.421785100014	0.0999849000945687
192529	100	7	stimuli\nonmovNat\cliff\nmn_cliff06.jpg          	1	1	1	nmn_cliff06.jpg      	nonmovNat	5	cliff     	7	cliff06     	75	not_alive	0	still	0	natural 	1	n	0	0    	 	0.0	0	209.471793500008	209.571783600026	0.0999901000177487
192679	100	8	stimuli\nonmovArt\headphones\nma_headphones07.jpg	1	1	1	nma_headphones07.jpg 	nonmovArt	4	headphones	18	headphones07	186	not_alive	0	still	0	artefact	0	n	0	0    	 	0.0	0	209.62212970003003	209.721779000014	0.0996492999838665
192829	100	9	stimuli\plant2\moss\plant_moss06.jpg             	1	1	1	plant_moss06.jpg     	plant2   	7	moss      	25	moss06      	255	alive    	1	still	0	natural 	1	n	0	0    	 	0.0	0	209.77178670000302	209.87179150001597	0.100004800013267
192979	100	10	stimuli\nonmovNat\crystal\nmn_crystal04.jpg      	1	1	1	nmn_crystal04.jpg    	nonmovNat	5	crystal   	10	crystal04   	103	not_alive	0	still	0	natural 	1	n	1	0    	 	0.0	0	209.921788799926	210.021777699934	0.0999889000086113
193129	100	11	stimuli\nonmovArt\headphones\nma_headphones05.jpg	1	1	1	nma_headphones05.jpg 	nonmovArt	4	headphones	18	headphones05	184	not_alive	0	still	0	artefact	0	n	0	0    	 	0.0	0	210.07178719993698	210.17177629994703	0.0999891000101342
193279	100	12	stimuli\movNat\fire\mn_fire06.jpg                	1	1	1	mn_fire06.jpg        	movNat   	3	fire      	15	fire06      	155	not_alive	0	moves	1	natural 	1	n	0	1    	f	0.39198380010202505	1	210.221787899965	210.32177249994098	0.099984599975869
193429	100	13	stimuli\animals\dolphin\animal_dolphin02.jpg     	1	1	1	animal_dolphin02.jpg 	animals  	0	dolphin   	12	dolphin02   	121	alive    	1	moves	1	natural 	1	n	1	0    	 	0.0	0	210.371785299969	210.47177439997898	0.0999891000101342
193579	100	14	stimuli\movNat\hotspring\mn_hotspring03.jpg      	1	1	1	mn_hotspring03.jpg   	movNat   	3	hotspring 	21	hotspring03 	212	not_alive	0	moves	1	natural 	1	n	0	0    	 	0.0	0	210.52178069995702	210.62177279999	0.0999921000329777
193729	100	15	stimuli\nonmovArt\lock\nma_lock05.jpg            	1	1	1	nma_lock05.jpg       	nonmovArt	4	lock      	24	lock05      	244	not_alive	0	still	0	artefact	0	n	0	0    	 	0.0	0	210.671779699973	210.771773100016	0.0999934000428766
193879	100	16	stimuli\nonmovArt\mug\nma_mug08.jpg              	1	1	1	nma_mug08.jpg        	nonmovArt	4	mug       	26	mug08       	267	not_alive	0	still	0	artefact	0	n	0	1    	f	0.442112799966708	1	210.821777999983	210.92176960001203	0.0999916000291705
194029	100	17	stimuli\movNat\waterfall\mn_waterfall05.jpg      	1	1	1	mn_waterfall05.jpg   	movNat   	3	waterfall 	37	waterfall05 	374	not_alive	0	moves	1	natural 	1	n	0	0    	 	0.0	0	210.971777400002	211.071789599955	0.100012199953198
194179	100	18	stimuli\animals2\lemur\animal_lemur06.jpg        	1	1	1	animal_lemur06.jpg   	animals2 	1	lemur     	23	lemur06     	235	alive    	1	moves	1	natural 	1	n	0	0    	 	0.0	0	211.121784199961	211.22176799993	0.0999837999697774
194329	100	19	stimuli\nonmovArt\clothespeg\nma_clothespeg04.jpg	1	1	1	nma_clothespeg04.jpg 	nonmovArt	4	clothespeg	8	clothespeg04	83	not_alive	0	still	0	artefact	0	n	0	0    	 	0.0	0	211.271776499925	211.37176649994203	0.0999900000169873
194479	100	20	stimuli\plant\tree\plant_tree07.jpg              	1	1	1	plant_tree07.jpg     	plant    	6	tree      	35	tree07      	356	alive    	1	still	0	natural 	1	n	0	0    	 	0.0	0	211.421775599942	211.52176449995	0.0999889000086113
194629	100	21	stimuli\animals2\bee\animal_bee06.jpg            	1	1	1	animal_bee06.jpg     	animals2 	1	bee       	0	bee06       	5	alive    	1	moves	1	natural 	1	n	0	0    	 	0.0	0	211.571773399948	211.67178600002103	0.100012600072659
194779	100	22	stimuli\movArt\bus\ma_bus02.jpg                  	1	1	1	ma_bus02.jpg         	movArt   	2	bus       	3	bus02       	31	not_alive	0	moves	1	artefact	0	n	0	0    	 	0.0	0	211.721811400028	211.821762999985	0.0999515999574214
194929	100	23	stimuli\plant\cactus\plant_cactus06.jpg          	1	1	1	plant_cactus06.jpg   	plant    	6	cactus    	4	cactus06    	45	alive    	1	still	0	natural 	1	n	0	0    	 	0.0	0	211.871770599973	211.971758899977	0.0999883000040426
195079	100	24	stimuli\animals2\whale\animal_whale03.jpg        	1	1	1	animal_whale03.jpg   	animals2 	1	whale     	39	whale03     	392	alive    	1	moves	1	natural 	1	n	0	0    	 	0.0	0	212.021769599989	212.121759000001	0.0999894000124186
195229	100	25	stimuli\movNat\river\mn_river02.jpg              	1	1	1	mn_river02.jpg       	movNat   	3	river     	29	river02     	291	not_alive	0	moves	1	natural 	1	n	0	0    	 	0.0	0	212.171771100024	212.27175790001598	0.0999867999926209
195379	100	26	stimuli\animals2\pigeon\animal_pigeon09.jpg      	1	1	1	animal_pigeon09.jpg  	animals2 	1	pigeon    	28	pigeon09    	288	alive    	1	moves	1	natural 	1	n	0	0    	 	0.0	0	212.321767000016	212.421757999924	0.0999909999081865
195529	100	27	stimuli\nonmovNat\cliff\nmn_cliff06.jpg          	1	1	1	nmn_cliff06.jpg      	nonmovNat	5	cliff     	7	cliff06     	75	not_alive	0	still	0	natural 	1	n	0	0    	 	0.0	0	212.47176580003003	212.57175659993698	0.0999907999066636
195679	100	28	stimuli\nonmovArt\lock\nma_lock06.jpg            	1	1	1	nma_lock06.jpg       	nonmovArt	4	lock      	24	lock06      	245	not_alive	0	still	0	artefact	0	n	0	0    	 	0.0	0	212.62176359992	212.72175189992402	0.0999883000040426
195829	100	29	stimuli\plant\cactus\plant_cactus01.jpg          	1	1	1	plant_cactus01.jpg   	plant    	6	cactus    	4	cactus01    	40	alive    	1	still	0	natural 	1	n	0	0    	 	0.0	0	212.77176459995098	212.87176829995602	0.10000370000489099
195979	100	30	stimuli\movNat\river\mn_river10.jpg              	1	1	1	mn_river10.jpg       	movNat   	3	river     	29	river10     	299	not_alive	0	moves	1	natural 	1	n	0	0    	 	0.0	0	212.921760299942	213.02175329998101	0.0999930000398308
196129	100	31	stimuli\movArt\car\ma_car04.jpg                  	1	1	1	ma_car04.jpg         	movArt   	2	car       	5	car04       	53	not_alive	0	moves	1	artefact	0	n	0	0    	 	0.0	0	213.071762499982	213.171750799986	0.0999883000040426
196279	100	32	stimuli\animals2\pigeon\animal_pigeon01.jpg      	1	1	1	animal_pigeon01.jpg  	animals2 	1	pigeon    	28	pigeon01    	280	alive    	1	moves	1	natural 	1	n	0	0    	 	0.0	0	213.221758799977	213.321747199981	0.0999884000048041
196429	100	33	stimuli\nonmovArt\mug\nma_mug01.jpg              	1	1	1	nma_mug01.jpg        	nonmovArt	4	mug       	26	mug01       	260	not_alive	0	still	0	artefact	0	n	0	0    	 	0.0	0	213.371757699992	213.47175189992402	0.0999941999325528
196579	100	34	stimuli\animals\dog\animal_dog03.jpg             	1	1	1	animal_dog03.jpg     	animals  	0	dog       	11	dog03       	112	alive    	1	moves	1	natural 	1	n	1	0    	 	0.0	0	213.52175900002499	213.621746900026	0.0999879000009968
196729	100	35	stimuli\animals\cat\animal_cat07.jpg             	1	1	1	animal_cat07.jpg     	animals  	0	cat       	6	cat07       	66	alive    	1	moves	1	natural 	1	n	0	0    	 	0.0	0	213.671762999962	213.77174659993	0.0999835999682545
196879	100	36	stimuli\animals2\whale\animal_whale06.jpg        	1	1	1	animal_whale06.jpg   	animals2 	1	whale     	39	whale06     	395	alive    	1	moves	1	natural 	1	n	0	1    	f	0.304961599991657	1	213.82175439992	213.92174060002398	0.0999862001044675
197029	100	37	stimuli\plant2\palmtree\plant_palmtree07.jpg     	1	1	1	plant_palmtree07.jpg 	plant2   	7	palmtree  	27	palmtree07  	276	alive    	1	still	0	natural 	1	n	0	0    	 	0.0	0	213.971753499936	214.071742799948	0.0999893000116571
197179	100	38	stimuli\nonmovNat\sand\nmn_sand02.jpg            	1	1	1	nmn_sand02.jpg       	nonmovNat	5	sand      	31	sand02      	311	not_alive	0	still	0	natural 	1	n	0	0    	 	0.0	0	214.12175109994098	214.221741999965	0.0999909000238403
197329	100	39	stimuli\nonmovArt\clothespeg\nma_clothespeg04.jpg	1	1	1	nma_clothespeg04.jpg 	nonmovArt	4	clothespeg	8	clothespeg04	83	not_alive	0	still	0	artefact	0	n	0	0    	 	0.0	0	214.271751299966	214.371742799995	0.099991500028409
197479	100	40	stimuli\movArt\helicopter\ma_helicopter10.jpg    	1	1	1	ma_helicopter10.jpg  	movArt   	2	helicopter	19	helicopter10	199	not_alive	0	moves	1	artefact	0	n	0	0    	 	0.0	0	214.42175009998002	214.52173639996897	0.0999862999888137
197629	100	41	stimuli\plant\grass\plant_grass07.jpg            	1	1	1	plant_grass07.jpg    	plant    	6	grass     	17	grass07     	176	alive    	1	still	0	natural 	1	n	0	0    	 	0.0	0	214.57176079996898	214.67174729995898	0.0999864999903366
197779	100	42	stimuli\plant2\moss\plant_moss05.jpg             	1	1	1	plant_moss05.jpg     	plant2   	7	moss      	25	moss05      	254	alive    	1	still	0	natural 	1	n	0	0    	 	0.0	0	214.72174629999802	214.821735500009	0.0999892000108957
197929	100	43	stimuli\nonmovNat\crystal\nmn_crystal04.jpg      	1	1	1	nmn_crystal04.jpg    	nonmovNat	5	crystal   	10	crystal04   	103	not_alive	0	still	0	natural 	1	n	0	0    	 	0.0	0	214.871744100004	214.971735700034	0.0999916000291705
198079	100	44	stimuli\animals\dolphin\animal_dolphin08.jpg     	1	1	1	animal_dolphin08.jpg 	animals  	0	dolphin   	12	dolphin08   	127	alive    	1	moves	1	natural 	1	n	0	0    	 	0.0	0	215.021747199935	215.12173230003103	0.0999851000960916
198229	100	45	stimuli\plant\tree\plant_tree02.jpg              	1	1	1	plant_tree02.jpg     	plant    	6	tree      	35	tree02      	351	alive    	1	still	0	natural 	1	n	0	0    	 	0.0	0	215.171748099965	215.271732199937	0.0999840999720618
198379	100	46	stimuli\movArt\boat\ma_boat06.jpg                	1	1	1	ma_boat06.jpg        	movArt   	2	boat      	2	boat06      	25	not_alive	0	moves	1	artefact	0	n	0	0    	 	0.0	0	215.32173790002702	215.42250400001598	0.100766099989414
198530	100	47	stimuli\movArt\boat\ma_boat08.jpg                	1	1	1	ma_boat08.jpg        	movArt   	2	boat      	2	boat08      	27	not_alive	0	moves	1	artefact	0	n	0	0    	 	0.0	0	215.472588100005	215.572493699961	0.0999055999564006
198680	100	48	stimuli\movNat\hotspring\mn_hotspring01.jpg      	1	1	1	mn_hotspring01.jpg   	movNat   	3	hotspring 	21	hotspring01 	210	not_alive	0	moves	1	natural 	1	n	0	0    	 	0.0	0	215.622588700033	215.722482400015	0.0998936999822035
198830	100	49	stimuli\nonmovArt\bench\nma_bench05.jpg          	1	1	1	nma_bench05.jpg      	nonmovArt	4	bench     	1	bench05     	14	not_alive	0	still	0	artefact	0	n	0	0    	 	0.0	0	215.772581199999	215.87248869996998	0.0999074999708682
198980	100	50	stimuli\plant\flower\plant_flower02.jpg          	1	1	1	plant_flower02.jpg   	plant    	6	flower    	16	flower02    	161	alive    	1	still	0	natural 	1	n	0	0    	 	0.0	0	215.92257699999	216.02246899996	0.0998919999692589
199130	100	51	stimuli\animals\dog\animal_dog04.jpg             	1	1	1	animal_dog04.jpg     	animals  	0	dog       	11	dog04       	113	alive    	1	moves	1	natural 	1	n	0	0    	 	0.0	0	216.072569199954	216.17250139999697	0.0999322000425309
199280	100	52	stimuli\animals2\lemur\animal_lemur09.jpg        	1	1	1	animal_lemur09.jpg   	animals2 	1	lemur     	23	lemur09     	238	alive    	1	moves	1	natural 	1	n	0	0    	 	0.0	0	216.222575900028	216.322489399929	0.0999134999001398
199430	100	53	stimuli\movNat\waves\mn_waves07.jpg              	1	1	1	mn_waves07.jpg       	movNat   	3	waves     	38	waves07     	386	not_alive	0	moves	1	natural 	1	n	0	0    	 	0.0	0	216.372581499978	216.472520299954	0.0999387999763712
199580	100	54	stimuli\animals\horse\animal_horse08.jpg         	1	1	1	animal_horse08.jpg   	animals  	0	horse     	20	horse08     	207	alive    	1	moves	1	natural 	1	n	0	0    	 	0.0	0	216.522582500009	216.62249869993	0.099916199920699
199730	100	55	stimuli\animals2\tiger\animal_tiger07.jpg        	1	1	1	animal_tiger07.jpg   	animals2 	1	tiger     	33	tiger07     	336	alive    	1	moves	1	natural 	1	n	0	0    	 	0.0	0	216.672612000024	216.772505400004	0.0998933999799192
199880	100	56	stimuli\movNat\fire\mn_fire08.jpg                	1	1	1	mn_fire08.jpg        	movNat   	3	fire      	15	fire08      	157	not_alive	0	moves	1	natural 	1	n	1	0    	 	0.0	0	216.82261949998798	216.922549400013	0.0999299000250175
200030	100	57	stimuli\animals\eagle\animal_eagle07.jpg         	1	1	1	animal_eagle07.jpg   	animals  	0	eagle     	13	eagle07     	136	alive    	1	moves	1	natural 	1	n	0	0    	 	0.0	0	216.972617699997	217.07255779998403	0.09994009998627
200180	100	58	stimuli\movNat\waterfall\mn_waterfall08.jpg      	1	1	1	mn_waterfall08.jpg   	movNat   	3	waterfall 	37	waterfall08 	377	not_alive	0	moves	1	natural 	1	n	0	1    	f	0.292063200031407	1	217.122746399953	217.222507299972	0.0997609000187367
200330	100	59	stimuli\animals2\bee\animal_bee03.jpg            	1	1	1	animal_bee03.jpg     	animals2 	1	bee       	0	bee03       	2	alive    	1	moves	1	natural 	1	n	0	0    	 	0.0	0	217.272593599977	217.37248739996002	0.09989379998296499
200480	100	60	stimuli\movNat\waterfall\mn_waterfall03.jpg      	1	1	1	mn_waterfall03.jpg   	movNat   	3	waterfall 	37	waterfall03 	372	not_alive	0	moves	1	natural 	1	n	0	0    	 	0.0	0	217.422579700011	217.522507200018	0.0999275000067427
200630	100	61	stimuli\animals2\lemur\animal_lemur03.jpg        	1	1	1	animal_lemur03.jpg   	animals2 	1	lemur     	23	lemur03     	232	alive    	1	moves	1	natural 	1	n	0	0    	 	0.0	0	217.572580799926	217.67250659992	0.0999257999937981
200780	100	62	stimuli\plant2\fern\plant_fern08.jpg             	1	1	1	plant_fern08.jpg     	plant2   	7	fern      	14	fern08      	147	alive    	1	still	0	natural 	1	n	0	0    	 	0.0	0	217.722590300022	217.822527799988	0.0999374999664724
200930	100	63	stimuli\movArt\boat\ma_boat04.jpg                	1	1	1	ma_boat04.jpg        	movArt   	2	boat      	2	boat04      	23	not_alive	0	moves	1	artefact	0	n	0	0    	 	0.0	0	217.87260310002603	217.972508599982	0.0999054999556392
201080	100	64	stimuli\movArt\bus\ma_bus10.jpg                  	1	1	1	ma_bus10.jpg         	movArt   	2	bus       	3	bus10       	39	not_alive	0	moves	1	artefact	0	n	0	0    	 	0.0	0	218.02260359993699	218.122478200006	0.0998746000695973
201230	100	65	stimuli\nonmovArt\lock\nma_lock02.jpg            	1	1	1	nma_lock02.jpg       	nonmovArt	4	lock      	24	lock02      	241	not_alive	0	still	0	artefact	0	n	0	0    	 	0.0	0	218.17259229999001	218.27248119993598	0.0998888999456539
201380	100	66	stimuli\nonmovNat\crystal\nmn_crystal01.jpg      	1	1	1	nmn_crystal01.jpg    	nonmovNat	5	crystal   	10	crystal01   	100	not_alive	0	still	0	natural 	1	n	0	0    	 	0.0	0	218.322586399969	218.42247689992598	0.0998904999578371
201530	100	67	stimuli\movArt\train\ma_train10.jpg              	1	1	1	ma_train10.jpg       	movArt   	2	train     	34	train10     	349	not_alive	0	moves	1	artefact	0	n	0	0    	 	0.0	0	218.472576600034	218.57247939996898	0.0999027999350801
201680	100	68	stimuli\plant\vine\plant_vine06.jpg              	1	1	1	plant_vine06.jpg     	plant    	6	vine      	36	vine06      	365	alive    	1	still	0	natural 	1	n	0	0    	 	0.0	0	218.622593699954	218.72250099992402	0.0999072999693453
201830	100	69	stimuli\plant\grass\plant_grass04.jpg            	1	1	1	plant_grass04.jpg    	plant    	6	grass     	17	grass04     	173	alive    	1	still	0	natural 	1	n	0	0    	 	0.0	0	218.77267530001703	218.87257809995202	0.0999027999350801
201980	100	70	stimuli\animals2\pigeon\animal_pigeon02.jpg      	1	1	1	animal_pigeon02.jpg  	animals2 	1	pigeon    	28	pigeon02    	281	alive    	1	moves	1	natural 	1	n	0	0    	 	0.0	0	218.922602099949	219.02251199993802	0.09990989998914301
202130	100	71	stimuli\plant2\fern\plant_fern09.jpg             	1	1	1	plant_fern09.jpg     	plant2   	7	fern      	14	fern09      	148	alive    	1	still	0	natural 	1	n	0	0    	 	0.0	0	219.072558699991	219.17247260001	0.099913900019601
202280	100	72	stimuli\plant2\palmtree\plant_palmtree09.jpg     	1	1	1	plant_palmtree09.jpg 	plant2   	7	palmtree  	27	palmtree09  	278	alive    	1	still	0	natural 	1	n	0	0    	 	0.0	0	219.222600899986	219.322494499967	0.0998935999814421
202430	100	73	stimuli\movArt\helicopter\ma_helicopter01.jpg    	1	1	1	ma_helicopter01.jpg  	movArt   	2	helicopter	19	helicopter01	190	not_alive	0	moves	1	artefact	0	n	0	0    	 	0.0	0	219.37257250002602	219.4724652	0.09989269997458901
202580	100	74	stimuli\nonmovNat\shell\nmn_shell08.jpg          	1	1	1	nmn_shell08.jpg      	nonmovNat	5	shell     	32	shell08     	327	not_alive	0	still	0	natural 	1	n	0	0    	 	0.0	0	219.522568500019	219.62249059998402	0.0999220999656245
202730	100	75	stimuli\plant\vine\plant_vine09.jpg              	1	1	1	plant_vine09.jpg     	plant    	6	vine      	36	vine09      	368	alive    	1	still	0	natural 	1	n	0	0    	 	0.0	0	219.67258309992002	219.77248549996898	0.0999024000484496
202880	100	76	stimuli\plant2\lemontree\plant_lemontree06.jpg   	1	1	1	plant_lemontree06.jpg	plant2   	7	lemontree 	22	lemontree06 	225	alive    	1	still	0	natural 	1	n	0	0    	 	0.0	0	219.82254979992297	219.92248319997398	0.0999334000516682
203030	100	77	stimuli\plant2\palmtree\plant_palmtree05.jpg     	1	1	1	plant_palmtree05.jpg 	plant2   	7	palmtree  	27	palmtree05  	274	alive    	1	still	0	natural 	1	n	0	0    	 	0.0	0	219.97258249996202	220.072466099984	0.0998836000217124
203180	100	78	stimuli\animals2\tiger\animal_tiger02.jpg        	1	1	1	animal_tiger02.jpg   	animals2 	1	tiger     	33	tiger02     	331	alive    	1	moves	1	natural 	1	n	0	0    	 	0.0	0	220.12258450000098	220.222492499976	0.0999079999746754
203330	100	79	stimuli\nonmovNat\sand\nmn_sand04.jpg            	1	1	1	nmn_sand04.jpg       	nonmovNat	5	sand      	31	sand04      	313	not_alive	0	still	0	natural 	1	n	0	0    	 	0.0	0	220.27256269997397	220.3724926	0.0999299000250175
209463	100	80	stimuli\movArt\car\ma_car05.jpg                  	1	2	1	ma_car05.jpg         	movArt   	2	car       	5	car05       	54	not_alive	0	moves	1	artefact	0	n	0	0    	 	0.0	0	226.40584919997502	226.50572599994499	0.0998767999699339
209613	100	81	stimuli\movArt\helicopter\ma_helicopter04.jpg    	1	2	1	ma_helicopter04.jpg  	movArt   	2	helicopter	19	helicopter04	193	not_alive	0	moves	1	artefact	0	n	0	0    	 	0.0	0	226.555825599935	226.655724199954	0.0998986000195145
209763	100	82	stimuli\movNat\waves\mn_waves03.jpg              	1	2	1	mn_waves03.jpg       	movNat   	3	waves     	38	waves03     	382	not_alive	0	moves	1	natural 	1	n	0	0    	 	0.0	0	226.705826799967	226.805723499972	0.09989670000504701
209913	100	83	stimuli\nonmovArt\bench\nma_bench03.jpg          	1	2	1	nma_bench03.jpg      	nonmovArt	4	bench     	1	bench03     	12	not_alive	0	still	0	artefact	0	n	0	0    	 	0.0	0	226.85590720002102	226.955709300004	0.0998020999832078
210063	100	84	stimuli\movNat\waves\mn_waves01.jpg              	1	2	1	mn_waves01.jpg       	movNat   	3	waves     	38	waves01     	380	not_alive	0	moves	1	natural 	1	n	0	0    	 	0.0	0	227.005827000015	227.10573089995898	0.099903899943456
210213	100	85	stimuli\animals\eagle\animal_eagle05.jpg         	1	2	1	animal_eagle05.jpg   	animals  	0	eagle     	13	eagle05     	134	alive    	1	moves	1	natural 	1	n	0	0    	 	0.0	0	227.15583109995399	227.255727099953	0.0998959999997168
210363	100	86	stimuli\plant\cactus\plant_cactus01.jpg          	1	2	1	plant_cactus01.jpg   	plant    	6	cactus    	4	cactus01    	40	alive    	1	still	0	natural 	1	n	0	0    	 	0.0	0	227.305816399981	227.40574469999402	0.0999283000128343
210513	100	87	stimuli\plant2\fern\plant_fern09.jpg             	1	2	1	plant_fern09.jpg     	plant2   	7	fern      	14	fern09      	148	alive    	1	still	0	natural 	1	n	0	0    	 	0.0	0	227.45581249997502	227.555730100023	0.0999176000477746
210663	100	88	stimuli\animals2\whale\animal_whale04.jpg        	1	2	1	animal_whale04.jpg   	animals2 	1	whale     	39	whale04     	393	alive    	1	moves	1	natural 	1	n	0	0    	 	0.0	0	227.605837399955	227.705709300004	0.0998719000490382
210813	100	89	stimuli\plant2\clover\plant_clover01.jpg         	1	2	1	plant_clover01.jpg   	plant2   	7	clover    	9	clover01    	90	alive    	1	still	0	natural 	1	n	0	0    	 	0.0	0	227.755812800024	227.85571049992	0.0998976998962462
210963	100	90	stimuli\nonmovNat\shell\nmn_shell07.jpg          	1	2	1	nmn_shell07.jpg      	nonmovNat	5	shell     	32	shell07     	326	not_alive	0	still	0	natural 	1	n	0	0    	 	0.0	0	227.905814999947	228.005720900022	0.0999059000751003
211113	100	91	stimuli\animals\cat\animal_cat06.jpg             	1	2	1	animal_cat06.jpg     	animals  	0	cat       	6	cat06       	65	alive    	1	moves	1	natural 	1	n	0	0    	 	0.0	0	228.055812199949	228.15572629997	0.0999141000211238
211263	100	92	stimuli\nonmovArt\headphones\nma_headphones09.jpg	1	2	1	nma_headphones09.jpg 	nonmovArt	4	headphones	18	headphones09	188	not_alive	0	still	0	artefact	0	n	0	0    	 	0.0	0	228.205819600029	228.305723099969	0.0999034999404102
211413	100	93	stimuli\animals\dog\animal_dog10.jpg             	1	2	1	animal_dog10.jpg     	animals  	0	dog       	11	dog10       	119	alive    	1	moves	1	natural 	1	n	0	0    	 	0.0	0	228.35585529997502	228.455874999985	0.10001970001030698
211563	100	94	stimuli\plant2\lemontree\plant_lemontree07.jpg   	1	2	1	plant_lemontree07.jpg	plant2   	7	lemontree 	22	lemontree07 	226	alive    	1	still	0	natural 	1	n	0	0    	 	0.0	0	228.505808999995	228.605739400024	0.0999304000288248
211713	100	95	stimuli\animals\eagle\animal_eagle05.jpg         	1	2	1	animal_eagle05.jpg   	animals  	0	eagle     	13	eagle05     	134	alive    	1	moves	1	natural 	1	n	0	0    	 	0.0	0	228.655930800014	228.755723299924	0.0997924999101087
211863	100	96	stimuli\movArt\train\ma_train03.jpg              	1	2	1	ma_train03.jpg       	movArt   	2	train     	34	train03     	342	not_alive	0	moves	1	artefact	0	n	0	0    	 	0.0	0	228.805810099933	228.90572769998101	0.0999176000477746
212013	100	97	stimuli\plant2\clover\plant_clover10.jpg         	1	2	1	plant_clover10.jpg   	plant2   	7	clover    	9	clover10    	99	alive    	1	still	0	natural 	1	n	0	0    	 	0.0	0	228.95580719993401	229.055714300019	0.0999071000842377
212163	100	98	stimuli\movArt\car\ma_car10.jpg                  	1	2	1	ma_car10.jpg         	movArt   	2	car       	5	car10       	59	not_alive	0	moves	1	artefact	0	n	0	0    	 	0.0	0	229.105798500008	229.205708699999	0.0999101999914273
212313	100	99	stimuli\plant\tree\plant_tree03.jpg              	1	2	1	plant_tree03.jpg     	plant    	6	tree      	35	tree03      	352	alive    	1	still	0	natural 	1	n	0	0    	 	0.0	0	229.255800099927	229.355713599944	0.0999135000165552
212463	100	100	stimuli\plant2\clover\plant_clover03.jpg         	1	2	1	plant_clover03.jpg   	plant2   	7	clover    	9	clover03    	92	alive    	1	still	0	natural 	1	n	0	0    	 	0.0	0	229.405810400029	229.505697099958	0.09988669992890199
212613	100	101	stimuli\nonmovArt\bench\nma_bench03.jpg          	1	2	1	nma_bench03.jpg      	nonmovArt	4	bench     	1	bench03     	12	not_alive	0	still	0	artefact	0	n	0	0    	 	0.0	0	229.55579879996398	229.655711999978	0.0999132000142708
212763	100	102	stimuli\movNat\river\mn_river01.jpg              	1	2	1	mn_river01.jpg       	movNat   	3	river     	29	river01     	290	not_alive	0	moves	1	natural 	1	n	0	0    	 	0.0	0	229.705797399976	229.805703299935	0.099905899958685
212913	100	103	stimuli\animals2\tiger\animal_tiger06.jpg        	1	2	1	animal_tiger06.jpg   	animals2 	1	tiger     	33	tiger06     	335	alive    	1	moves	1	natural 	1	n	0	0    	 	0.0	0	229.855787599925	229.955702599953	0.0999150000279769
213063	100	104	stimuli\nonmovNat\sand\nmn_sand10.jpg            	1	2	1	nmn_sand10.jpg       	nonmovNat	5	sand      	31	sand10      	319	not_alive	0	still	0	natural 	1	n	0	0    	 	0.0	0	230.00579660001702	230.105685099959	0.0998884999426081
213213	100	105	stimuli\animals\cat\animal_cat06.jpg             	1	2	1	animal_cat06.jpg     	animals  	0	cat       	6	cat06       	65	alive    	1	moves	1	natural 	1	n	0	0    	 	0.0	0	230.155809000018	230.255725299939	0.0999162999214604
213363	100	106	stimuli\movNat\fire\mn_fire01.jpg                	1	2	1	mn_fire01.jpg        	movNat   	3	fire      	15	fire01      	150	not_alive	0	moves	1	natural 	1	n	0	0    	 	0.0	0	230.305796799948	230.405777800013	0.0999810000648722
213513	100	107	stimuli\plant\flower\plant_flower05.jpg          	1	2	1	plant_flower05.jpg   	plant    	6	flower    	16	flower05    	164	alive    	1	still	0	natural 	1	n	0	0    	 	0.0	0	230.455873999977	230.55569479998698	0.0998208000091836
213663	100	108	stimuli\animals\horse\animal_horse08.jpg         	1	2	1	animal_horse08.jpg   	animals  	0	horse     	20	horse08     	207	alive    	1	moves	1	natural 	1	n	0	1    	f	0.0	0	230.60576589999198	230.705705799977	0.0999398999847471
213813	100	109	stimuli\nonmovArt\clothespeg\nma_clothespeg02.jpg	1	2	1	nma_clothespeg02.jpg 	nonmovArt	4	clothespeg	8	clothespeg02	81	not_alive	0	still	0	artefact	0	n	1	0    	 	0.0	0	230.755796400015	230.85569919994998	0.0999027999350801
213963	100	110	stimuli\nonmovNat\rock\nmn_rock06.jpg            	1	2	1	nmn_rock06.jpg       	nonmovNat	5	rock      	30	rock06      	305	not_alive	0	still	0	natural 	1	n	0	0    	 	0.0	0	230.905780999921	231.00567610003102	0.0998951001092791
214113	100	111	stimuli\plant\grass\plant_grass04.jpg            	1	2	1	plant_grass04.jpg    	plant    	6	grass     	17	grass04     	173	alive    	1	still	0	natural 	1	n	0	0    	 	0.0	0	231.055799499969	231.15569919999697	0.0998997000278905
214263	100	112	stimuli\animals2\bee\animal_bee10.jpg            	1	2	1	animal_bee10.jpg     	animals2 	1	bee       	0	bee10       	9	alive    	1	moves	1	natural 	1	n	1	0    	 	0.0	0	231.205775699927	231.305703399936	0.0999277000082656
214413	100	113	stimuli\plant\flower\plant_flower06.jpg          	1	2	1	plant_flower06.jpg   	plant    	6	flower    	16	flower06    	165	alive    	1	still	0	natural 	1	n	0	0    	 	0.0	0	231.355784200015	231.455699099926	0.0999148999108001
214563	100	114	stimuli\movNat\hotspring\mn_hotspring03.jpg      	1	2	1	mn_hotspring03.jpg   	movNat   	3	hotspring 	21	hotspring03 	212	not_alive	0	moves	1	natural 	1	n	0	0    	 	0.0	0	231.505777199985	231.605677000014	0.0998998000286519
214713	100	115	stimuli\nonmovArt\mug\nma_mug10.jpg              	1	2	1	nma_mug10.jpg        	nonmovArt	4	mug       	26	mug10       	269	not_alive	0	still	0	artefact	0	n	0	1    	f	0.453969200025313	1	231.655783299939	231.755681999959	0.09989870002027601
214863	100	116	stimuli\animals\dolphin\animal_dolphin06.jpg     	1	2	1	animal_dolphin06.jpg 	animals  	0	dolphin   	12	dolphin06   	125	alive    	1	moves	1	natural 	1	n	0	0    	 	0.0	0	231.80578679998902	231.905690799933	0.0999039999442175
215013	100	117	stimuli\plant2\lemontree\plant_lemontree05.jpg   	1	2	1	plant_lemontree05.jpg	plant2   	7	lemontree 	22	lemontree05 	224	alive    	1	still	0	natural 	1	n	0	0    	 	0.0	0	231.955783299985	232.055696299998	0.0999130000127479
215163	100	118	stimuli\plant\vine\plant_vine04.jpg              	1	2	1	plant_vine04.jpg     	plant    	6	vine      	36	vine04      	363	alive    	1	still	0	natural 	1	n	0	0    	 	0.0	0	232.10578250000302	232.205750899971	0.0999683999689296
215313	100	119	stimuli\nonmovNat\rock\nmn_rock04.jpg            	1	2	1	nmn_rock04.jpg       	nonmovNat	5	rock      	30	rock04      	303	not_alive	0	still	0	natural 	1	n	0	0    	 	0.0	0	232.25577449996499	232.355680499924	0.0999059999594464
215463	100	120	stimuli\animals\cat\animal_cat02.jpg             	1	2	1	animal_cat02.jpg     	animals  	0	cat       	6	cat02       	61	alive    	1	moves	1	natural 	1	n	0	0    	 	0.0	0	232.40581020002702	232.505679299938	0.0998690999113023
215613	100	121	stimuli\movArt\helicopter\ma_helicopter09.jpg    	1	2	1	ma_helicopter09.jpg  	movArt   	2	helicopter	19	helicopter09	198	not_alive	0	moves	1	artefact	0	n	0	0    	 	0.0	0	232.55569780001	232.655690699932	0.09999289992265402
215763	100	122	stimuli\animals2\pigeon\animal_pigeon01.jpg      	1	2	1	animal_pigeon01.jpg  	animals2 	1	pigeon    	28	pigeon01    	280	alive    	1	moves	1	natural 	1	n	0	0    	 	0.0	0	232.705810799962	232.80567619996103	0.09986539999954401
215913	100	123	stimuli\nonmovArt\bench\nma_bench04.jpg          	1	2	1	nma_bench04.jpg      	nonmovArt	4	bench     	1	bench04     	13	not_alive	0	still	0	artefact	0	n	0	0    	 	0.0	0	232.85578129999297	232.95568709995098	0.0999057999579236
216063	100	124	stimuli\animals2\bee\animal_bee04.jpg            	1	2	1	animal_bee04.jpg     	animals2 	1	bee       	0	bee04       	3	alive    	1	moves	1	natural 	1	n	0	0    	 	0.0	0	233.00580059993098	233.105696199927	0.09989559999667098
216213	100	125	stimuli\plant\grass\plant_grass07.jpg            	1	2	1	plant_grass07.jpg    	plant    	6	grass     	17	grass07     	176	alive    	1	still	0	natural 	1	n	0	0    	 	0.0	0	233.155786999967	233.25571339996497	0.0999263999983668
216363	100	126	stimuli\nonmovArt\headphones\nma_headphones01.jpg	1	2	1	nma_headphones01.jpg 	nonmovArt	4	headphones	18	headphones01	180	not_alive	0	still	0	artefact	0	n	0	0    	 	0.0	0	233.305796299945	233.405698399991	0.0999021000461652
216513	100	127	stimuli\nonmovArt\lock\nma_lock01.jpg            	1	2	1	nma_lock01.jpg       	nonmovArt	4	lock      	24	lock01      	240	not_alive	0	still	0	artefact	0	n	1	0    	 	0.0	0	233.455783399986	233.555677699973	0.0998942999867722
216663	100	128	stimuli\movArt\bus\ma_bus03.jpg                  	1	2	1	ma_bus03.jpg         	movArt   	2	bus       	3	bus03       	32	not_alive	0	moves	1	artefact	0	n	0	0    	 	0.0	0	233.60576639999599	233.705735199968	0.0999687999719754
216813	100	129	stimuli\animals\eagle\animal_eagle01.jpg         	1	2	1	animal_eagle01.jpg   	animals  	0	eagle     	13	eagle01     	130	alive    	1	moves	1	natural 	1	n	0	1    	f	0.391990100033581	1	233.75579209998298	233.85570309997996	0.0999109999975189
216963	100	130	stimuli\plant2\fern\plant_fern03.jpg             	1	2	1	plant_fern03.jpg     	plant2   	7	fern      	14	fern03      	142	alive    	1	still	0	natural 	1	n	0	0    	 	0.0	0	233.905825600028	234.005765000009	0.0999393999809399
217113	100	131	stimuli\movArt\train\ma_train08.jpg              	1	2	1	ma_train08.jpg       	movArt   	2	train     	34	train08     	347	not_alive	0	moves	1	artefact	0	n	0	0    	 	0.0	0	234.055868500029	234.155689699924	0.099821199895814
217263	100	132	stimuli\movArt\car\ma_car05.jpg                  	1	2	1	ma_car05.jpg         	movArt   	2	car       	5	car05       	54	not_alive	0	moves	1	artefact	0	n	0	0    	 	0.0	0	234.20577070000598	234.305709899985	0.09993919997941698
217413	100	133	stimuli\movNat\hotspring\mn_hotspring04.jpg      	1	2	1	mn_hotspring04.jpg   	movNat   	3	hotspring 	21	hotspring04 	213	not_alive	0	moves	1	natural 	1	n	0	0    	 	0.0	0	234.35578069998903	234.45566730003299	0.0998866000445559
217563	100	134	stimuli\nonmovArt\bench\nma_bench01.jpg          	1	2	1	nma_bench01.jpg      	nonmovArt	4	bench     	1	bench01     	10	not_alive	0	still	0	artefact	0	n	0	0    	 	0.0	0	234.50575999997102	234.60568609996702	0.0999260999960824
217713	100	135	stimuli\animals\horse\animal_horse04.jpg         	1	2	1	animal_horse04.jpg   	animals  	0	horse     	20	horse04     	203	alive    	1	moves	1	natural 	1	n	1	0    	 	0.0	0	234.655770499958	234.755710499943	0.0999399999855086
217863	100	136	stimuli\nonmovNat\rock\nmn_rock04.jpg            	1	2	1	nmn_rock04.jpg       	nonmovNat	5	rock      	30	rock04      	303	not_alive	0	still	0	natural 	1	n	0	0    	 	0.0	0	234.805773500004	234.905700400006	0.09992690000217401
218013	100	137	stimuli\plant2\palmtree\plant_palmtree07.jpg     	1	2	1	plant_palmtree07.jpg 	plant2   	7	palmtree  	27	palmtree07  	276	alive    	1	still	0	natural 	1	n	0	1    	f	0.409966700011864	1	234.955788200023	235.055696199997	0.0999079999746754
218163	100	138	stimuli\nonmovArt\clothespeg\nma_clothespeg02.jpg	1	2	1	nma_clothespeg02.jpg 	nonmovArt	4	clothespeg	8	clothespeg02	81	not_alive	0	still	0	artefact	0	n	0	0    	 	0.0	0	235.105799000012	235.20568210002997	0.0998831000179052
218313	100	139	stimuli\animals2\tiger\animal_tiger03.jpg        	1	2	1	animal_tiger03.jpg   	animals2 	1	tiger     	33	tiger03     	332	alive    	1	moves	1	natural 	1	n	0	0    	 	0.0	0	235.25579059997102	235.355690099997	0.0998995000263676
218463	100	140	stimuli\plant2\moss\plant_moss08.jpg             	1	2	1	plant_moss08.jpg     	plant2   	7	moss      	25	moss08      	257	alive    	1	still	0	natural 	1	n	0	0    	 	0.0	0	235.405765699921	235.50566679996	0.0999011000385508
218613	100	141	stimuli\movNat\fire\mn_fire03.jpg                	1	2	1	mn_fire03.jpg        	movNat   	3	fire      	15	fire03      	152	not_alive	0	moves	1	natural 	1	n	0	0    	 	0.0	0	235.555779699935	235.65567489992802	0.0998951999936252
218763	100	142	stimuli\plant2\palmtree\plant_palmtree04.jpg     	1	2	1	plant_palmtree04.jpg 	plant2   	7	palmtree  	27	palmtree04  	273	alive    	1	still	0	natural 	1	n	0	0    	 	0.0	0	235.705827399972	235.80578629998502	0.0999589000130072
218913	100	143	stimuli\nonmovNat\crystal\nmn_crystal01.jpg      	1	2	1	nmn_crystal01.jpg    	nonmovNat	5	crystal   	10	crystal01   	100	not_alive	0	still	0	natural 	1	n	0	0    	 	0.0	0	235.855875000008	235.95568559993998	0.0998105999315157
219063	100	144	stimuli\movNat\river\mn_river03.jpg              	1	2	1	mn_river03.jpg       	movNat   	3	river     	29	river03     	292	not_alive	0	moves	1	natural 	1	n	0	0    	 	0.0	0	236.00578849995497	236.10567790002102	0.0998894000658765
219213	100	145	stimuli\animals\dog\animal_dog02.jpg             	1	2	1	animal_dog02.jpg     	animals  	0	dog       	11	dog02       	111	alive    	1	moves	1	natural 	1	n	0	0    	 	0.0	0	236.155746300006	236.25566639995702	0.0999200999503955
219363	100	146	stimuli\animals\dolphin\animal_dolphin01.jpg     	1	2	1	animal_dolphin01.jpg 	animals  	0	dolphin   	12	dolphin01   	120	alive    	1	moves	1	natural 	1	n	0	0    	 	0.0	0	236.30575549998298	236.40565039997398	0.0998948999913409
219513	100	147	stimuli\plant2\palmtree\plant_palmtree08.jpg     	1	2	1	plant_palmtree08.jpg 	plant2   	7	palmtree  	27	palmtree08  	277	alive    	1	still	0	natural 	1	n	0	0    	 	0.0	0	236.45575660001498	236.555697300006	0.0999406999908387
219663	100	148	stimuli\nonmovArt\clothespeg\nma_clothespeg08.jpg	1	2	1	nma_clothespeg08.jpg 	nonmovArt	4	clothespeg	8	clothespeg08	87	not_alive	0	still	0	artefact	0	n	0	0    	 	0.0	0	236.605783900013	236.70563909993498	0.0998551999218762
219813	100	149	stimuli\movArt\car\ma_car06.jpg                  	1	2	1	ma_car06.jpg         	movArt   	2	car       	5	car06       	55	not_alive	0	moves	1	artefact	0	n	0	0    	 	0.0	0	236.755785599933	236.855686799972	0.0999012000393122
219963	100	150	stimuli\movNat\fire\mn_fire05.jpg                	1	2	1	mn_fire05.jpg        	movNat   	3	fire      	15	fire05      	154	not_alive	0	moves	1	natural 	1	n	0	0    	 	0.0	0	236.90577199996898	237.005666199955	0.0998941999860108
220113	100	151	stimuli\plant\flower\plant_flower07.jpg          	1	2	1	plant_flower07.jpg   	plant    	6	flower    	16	flower07    	166	alive    	1	still	0	natural 	1	n	0	0    	 	0.0	0	237.05574689991798	237.155644299928	0.0998974000103771
220263	100	152	stimuli\movArt\boat\ma_boat09.jpg                	1	2	1	ma_boat09.jpg        	movArt   	2	boat      	2	boat09      	28	not_alive	0	moves	1	artefact	0	n	0	0    	 	0.0	0	237.20577390002998	237.30567779997398	0.099903899943456
220413	100	153	stimuli\movNat\hotspring\mn_hotspring01.jpg      	1	2	1	mn_hotspring01.jpg   	movNat   	3	hotspring 	21	hotspring01 	210	not_alive	0	moves	1	natural 	1	n	0	0    	 	0.0	0	237.355747099966	237.45566570002103	0.0999186000553891
220563	100	154	stimuli\plant2\moss\plant_moss09.jpg             	1	2	1	plant_moss09.jpg     	plant2   	7	moss      	25	moss09      	258	alive    	1	still	0	natural 	1	n	0	0    	 	0.0	0	237.50577259994998	237.605743099935	0.09997049998492001
220713	100	155	stimuli\plant\vine\plant_vine02.jpg              	1	2	1	plant_vine02.jpg     	plant    	6	vine      	36	vine02      	361	alive    	1	still	0	natural 	1	n	0	0    	 	0.0	0	237.65594199998299	237.75563269993302	0.0996906999498605
220863	100	156	stimuli\animals\dog\animal_dog08.jpg             	1	2	1	animal_dog08.jpg     	animals  	0	dog       	11	dog08       	117	alive    	1	moves	1	natural 	1	n	0	0    	 	0.0	0	237.805761900032	237.905672100023	0.0999101999914273
221013	100	157	stimuli\movNat\waterfall\mn_waterfall02.jpg      	1	2	1	mn_waterfall02.jpg   	movNat   	3	waterfall 	37	waterfall02 	371	not_alive	0	moves	1	natural 	1	n	0	0    	 	0.0	0	237.95575490000198	238.05565029999698	0.0998953999951481
221163	100	158	stimuli\movNat\hotspring\mn_hotspring03.jpg      	1	2	1	mn_hotspring03.jpg   	movNat   	3	hotspring 	21	hotspring03 	212	not_alive	0	moves	1	natural 	1	n	0	0    	 	0.0	0	238.10572440002602	238.205665100017	0.0999406999908387
221313	100	159	stimuli\animals2\whale\animal_whale04.jpg        	1	2	1	animal_whale04.jpg   	animals2 	1	whale     	39	whale04     	393	alive    	1	moves	1	natural 	1	n	0	0    	 	0.0	0	238.255757699953	238.355663300026	0.099905600072816
226330	100	160	stimuli\plant2\lemontree\plant_lemontree07.jpg   	1	3	1	plant_lemontree07.jpg	plant2   	7	lemontree 	22	lemontree07 	226	alive    	1	still	0	natural 	1	n	0	0    	 	0.0	0	243.272373899934	243.372263500001	0.0998896000673994
226480	100	161	stimuli\animals2\lemur\animal_lemur07.jpg        	1	3	1	animal_lemur07.jpg   	animals2 	1	lemur     	23	lemur07     	236	alive    	1	moves	1	natural 	1	n	0	0    	 	0.0	0	243.422351000016	243.52225189993598	0.0999008999206125
226630	100	162	stimuli\movNat\waves\mn_waves02.jpg              	1	3	1	mn_waves02.jpg       	movNat   	3	waves     	38	waves02     	381	not_alive	0	moves	1	natural 	1	n	0	0    	 	0.0	0	243.572353999945	243.672258100007	0.0999041000613942
226780	100	163	stimuli\nonmovNat\cliff\nmn_cliff03.jpg          	1	3	1	nmn_cliff03.jpg      	nonmovNat	5	cliff     	7	cliff03     	72	not_alive	0	still	0	natural 	1	n	0	0    	 	0.0	0	243.72234149999	243.822255300009	0.0999138000188395
226930	100	164	stimuli\animals\horse\animal_horse05.jpg         	1	3	1	animal_horse05.jpg   	animals  	0	horse     	20	horse05     	204	alive    	1	moves	1	natural 	1	n	0	0    	 	0.0	0	243.87235520000098	243.972259199945	0.0999039999442175
227080	100	165	stimuli\nonmovNat\shell\nmn_shell10.jpg          	1	3	1	nmn_shell10.jpg      	nonmovNat	5	shell     	32	shell10     	329	not_alive	0	still	0	natural 	1	n	0	0    	 	0.0	0	244.022352800006	244.122256499948	0.0999036999419331
227230	100	166	stimuli\plant\vine\plant_vine04.jpg              	1	3	1	plant_vine04.jpg     	plant    	6	vine      	36	vine04      	363	alive    	1	still	0	natural 	1	n	0	0    	 	0.0	0	244.172342099948	244.27224530000197	0.0999032000545412
227380	100	167	stimuli\plant\vine\plant_vine07.jpg              	1	3	1	plant_vine07.jpg     	plant    	6	vine      	36	vine07      	366	alive    	1	still	0	natural 	1	n	0	0    	 	0.0	0	244.32233879994598	244.42224450002	0.0999057000735774
227530	100	168	stimuli\animals2\pigeon\animal_pigeon02.jpg      	1	3	1	animal_pigeon02.jpg  	animals2 	1	pigeon    	28	pigeon02    	281	alive    	1	moves	1	natural 	1	n	0	0    	 	0.0	0	244.472337399959	244.57225550001	0.0999181000515818
227680	100	169	stimuli\animals2\tiger\animal_tiger04.jpg        	1	3	1	animal_tiger04.jpg   	animals2 	1	tiger     	33	tiger04     	333	alive    	1	moves	1	natural 	1	n	0	0    	 	0.0	0	244.622345399926	244.72225759993302	0.0999122000066563
227830	100	170	stimuli\nonmovArt\clothespeg\nma_clothespeg08.jpg	1	3	1	nma_clothespeg08.jpg 	nonmovArt	4	clothespeg	8	clothespeg08	87	not_alive	0	still	0	artefact	0	n	0	0    	 	0.0	0	244.772357399925	244.872237899923	0.0998804999981075
227980	100	171	stimuli\movNat\fire\mn_fire04.jpg                	1	3	1	mn_fire04.jpg        	movNat   	3	fire      	15	fire04      	153	not_alive	0	moves	1	natural 	1	n	0	0    	 	0.0	0	244.922328099958	245.02223010000301	0.0999020000454038
228130	100	172	stimuli\animals2\tiger\animal_tiger10.jpg        	1	3	1	animal_tiger10.jpg   	animals2 	1	tiger     	33	tiger10     	339	alive    	1	moves	1	natural 	1	n	0	0    	 	0.0	0	245.072342099971	245.172251699958	0.0999095999868586
228280	100	173	stimuli\nonmovNat\cliff\nmn_cliff04.jpg          	1	3	1	nmn_cliff04.jpg      	nonmovNat	5	cliff     	7	cliff04     	73	not_alive	0	still	0	natural 	1	n	0	0    	 	0.0	0	245.222342199995	245.32224369992	0.0999014999251812
228430	100	174	stimuli\movArt\bus\ma_bus03.jpg                  	1	3	1	ma_bus03.jpg         	movArt   	2	bus       	3	bus03       	32	not_alive	0	moves	1	artefact	0	n	0	0    	 	0.0	0	245.372329399921	245.47222260001598	0.0998932000948116
228580	100	175	stimuli\plant2\lemontree\plant_lemontree06.jpg   	1	3	1	plant_lemontree06.jpg	plant2   	7	lemontree 	22	lemontree06 	225	alive    	1	still	0	natural 	1	n	0	0    	 	0.0	0	245.52234119991797	245.62223059998402	0.0998894000658765
228730	100	176	stimuli\nonmovArt\lock\nma_lock04.jpg            	1	3	1	nma_lock04.jpg       	nonmovArt	4	lock      	24	lock04      	243	not_alive	0	still	0	artefact	0	n	0	0    	 	0.0	0	245.67235429992402	245.772240699967	0.09988640004303301
228880	100	177	stimuli\animals2\lemur\animal_lemur01.jpg        	1	3	1	animal_lemur01.jpg   	animals2 	1	lemur     	23	lemur01     	230	alive    	1	moves	1	natural 	1	n	0	0    	 	0.0	0	245.82233899994802	245.92224779992802	0.099908799980767
229030	100	178	stimuli\movNat\river\mn_river07.jpg              	1	3	1	mn_river07.jpg       	movNat   	3	river     	29	river07     	296	not_alive	0	moves	1	natural 	1	n	0	0    	 	0.0	0	245.972330400022	246.072244399926	0.0999139999039471
229180	100	179	stimuli\animals2\pigeon\animal_pigeon03.jpg      	1	3	1	animal_pigeon03.jpg  	animals2 	1	pigeon    	28	pigeon03    	282	alive    	1	moves	1	natural 	1	n	1	0    	 	0.0	0	246.12233699997898	246.222228299943	0.0998912999639287
229330	100	180	stimuli\nonmovNat\sand\nmn_sand03.jpg            	1	3	1	nmn_sand03.jpg       	nonmovNat	5	sand      	31	sand03      	312	not_alive	0	still	0	natural 	1	n	0	0    	 	0.0	0	246.272323200014	246.372233100003	0.09990989998914301
229480	100	181	stimuli\nonmovArt\bench\nma_bench04.jpg          	1	3	1	nma_bench04.jpg      	nonmovArt	4	bench     	1	bench04     	13	not_alive	0	still	0	artefact	0	n	0	1    	f	0.29202609998174	1	246.422312199953	246.52224409999297	0.0999319000402465
229630	100	182	stimuli\plant\grass\plant_grass08.jpg            	1	3	1	plant_grass08.jpg    	plant    	6	grass     	17	grass08     	177	alive    	1	still	0	natural 	1	n	0	1    	f	0.551351199974306	1	246.57232839998298	246.67218500003202	0.0998566000489518
229780	100	183	stimuli\plant2\fern\plant_fern01.jpg             	1	3	1	plant_fern01.jpg     	plant2   	7	fern      	14	fern01      	140	alive    	1	still	0	natural 	1	n	0	0    	 	0.0	0	246.72226439998502	246.822247799952	0.0999833999667316
229930	100	184	stimuli\plant\cactus\plant_cactus08.jpg          	1	3	1	plant_cactus08.jpg   	plant    	6	cactus    	4	cactus08    	47	alive    	1	still	0	natural 	1	n	0	0    	 	0.0	0	246.87235580000598	246.972254100023	0.0998983000172302
230080	100	185	stimuli\movNat\river\mn_river10.jpg              	1	3	1	mn_river10.jpg       	movNat   	3	river     	29	river10     	299	not_alive	0	moves	1	natural 	1	n	0	0    	 	0.0	0	247.022347799968	247.122253299924	0.0999054999556392
230230	100	186	stimuli\movNat\waves\mn_waves10.jpg              	1	3	1	mn_waves10.jpg       	movNat   	3	waves     	38	waves10     	389	not_alive	0	moves	1	natural 	1	n	0	0    	 	0.0	0	247.172351300018	247.27221790002702	0.0998666000086814
230380	100	187	stimuli\plant\tree\plant_tree08.jpg              	1	3	1	plant_tree08.jpg     	plant    	6	tree      	35	tree08      	357	alive    	1	still	0	natural 	1	n	0	0    	 	0.0	0	247.322352899937	247.42225509998403	0.0999022000469267
230530	100	188	stimuli\animals\horse\animal_horse04.jpg         	1	3	1	animal_horse04.jpg   	animals  	0	horse     	20	horse04     	203	alive    	1	moves	1	natural 	1	n	0	0    	 	0.0	0	247.472352099954	247.57225129997798	0.0998992000240832
230680	100	189	stimuli\animals\dolphin\animal_dolphin04.jpg     	1	3	1	animal_dolphin04.jpg 	animals  	0	dolphin   	12	dolphin04   	123	alive    	1	moves	1	natural 	1	n	0	0    	 	0.0	0	247.622340400005	247.722247299971	0.0999068999662995
230830	100	190	stimuli\animals\dog\animal_dog03.jpg             	1	3	1	animal_dog03.jpg     	animals  	0	dog       	11	dog03       	112	alive    	1	moves	1	natural 	1	n	0	0    	 	0.0	0	247.772320199991	247.872207999928	0.09988779993727802
230980	100	191	stimuli\plant2\lemontree\plant_lemontree03.jpg   	1	3	1	plant_lemontree03.jpg	plant2   	7	lemontree 	22	lemontree03 	222	alive    	1	still	0	natural 	1	n	0	0    	 	0.0	0	247.922349100001	248.02225029992402	0.0999011999228969
231130	100	192	stimuli\nonmovArt\mug\nma_mug05.jpg              	1	3	1	nma_mug05.jpg        	nonmovArt	4	mug       	26	mug05       	264	not_alive	0	still	0	artefact	0	n	0	0    	 	0.0	0	248.072340799961	248.17224899993698	0.0999081999761983
231280	100	193	stimuli\plant2\clover\plant_clover04.jpg         	1	3	1	plant_clover04.jpg   	plant2   	7	clover    	9	clover04    	93	alive    	1	still	0	natural 	1	n	0	0    	 	0.0	0	248.222308599972	248.32224589993697	0.0999372999649494
231430	100	194	stimuli\animals2\whale\animal_whale09.jpg        	1	3	1	animal_whale09.jpg   	animals2 	1	whale     	39	whale09     	398	alive    	1	moves	1	natural 	1	n	0	0    	 	0.0	0	248.37234549992698	248.472316400032	0.0999709001043811
231580	100	195	stimuli\plant2\fern\plant_fern02.jpg             	1	3	1	plant_fern02.jpg     	plant2   	7	fern      	14	fern02      	141	alive    	1	still	0	natural 	1	n	0	0    	 	0.0	0	248.522349999985	248.622212399961	0.0998623999767005
231730	100	196	stimuli\animals\eagle\animal_eagle06.jpg         	1	3	1	animal_eagle06.jpg   	animals  	0	eagle     	13	eagle06     	135	alive    	1	moves	1	natural 	1	n	0	0    	 	0.0	0	248.672341899946	248.77224039996497	0.0998985000187531
231880	100	197	stimuli\nonmovArt\headphones\nma_headphones04.jpg	1	3	1	nma_headphones04.jpg 	nonmovArt	4	headphones	18	headphones04	183	not_alive	0	still	0	artefact	0	n	0	0    	 	0.0	0	248.82230719993802	248.922242800007	0.0999356000684201
232030	100	198	stimuli\nonmovArt\mug\nma_mug03.jpg              	1	3	1	nma_mug03.jpg        	nonmovArt	4	mug       	26	mug03       	262	not_alive	0	still	0	artefact	0	n	0	0    	 	0.0	0	248.972343400004	249.07223489997003	0.0998914999654516
232180	100	199	stimuli\nonmovNat\rock\nmn_rock02.jpg            	1	3	1	nmn_rock02.jpg       	nonmovNat	5	rock      	30	rock02      	301	not_alive	0	still	0	natural 	1	n	0	0    	 	0.0	0	249.122334199958	249.222245499957	0.0999112999998033
232330	100	200	stimuli\movArt\train\ma_train06.jpg              	1	3	1	ma_train06.jpg       	movArt   	2	train     	34	train06     	345	not_alive	0	moves	1	artefact	0	n	0	0    	 	0.0	0	249.27232240000703	249.37223739991902	0.0999149999115616
232480	100	201	stimuli\movNat\waterfall\mn_waterfall07.jpg      	1	3	1	mn_waterfall07.jpg   	movNat   	3	waterfall 	37	waterfall07 	376	not_alive	0	moves	1	natural 	1	n	0	0    	 	0.0	0	249.422287699999	249.52224039996497	0.0999526999657973
232630	100	202	stimuli\nonmovArt\mug\nma_mug04.jpg              	1	3	1	nma_mug04.jpg        	nonmovArt	4	mug       	26	mug04       	263	not_alive	0	still	0	artefact	0	n	0	0    	 	0.0	0	249.57233029999801	249.67225950001702	0.0999292000196874
232780	100	203	stimuli\animals\cat\animal_cat08.jpg             	1	3	1	animal_cat08.jpg     	animals  	0	cat       	6	cat08       	67	alive    	1	moves	1	natural 	1	n	0	0    	 	0.0	0	249.72230869997298	249.822233999963	0.0999252999899908
232930	100	204	stimuli\animals2\bee\animal_bee10.jpg            	1	3	1	animal_bee10.jpg     	animals2 	1	bee       	0	bee10       	9	alive    	1	moves	1	natural 	1	n	0	0    	 	0.0	0	249.872357000015	249.97220750001702	0.0998505000025034
233080	100	205	stimuli\movNat\waves\mn_waves02.jpg              	1	3	1	mn_waves02.jpg       	movNat   	3	waves     	38	waves02     	381	not_alive	0	moves	1	natural 	1	n	1	0    	 	0.0	0	250.022287699976	250.122210999951	0.0999232999747619
233230	100	206	stimuli\plant\tree\plant_tree08.jpg              	1	3	1	plant_tree08.jpg     	plant    	6	tree      	35	tree08      	357	alive    	1	still	0	natural 	1	n	0	0    	 	0.0	0	250.17228629998903	250.272184800007	0.0998985000187531
233380	100	207	stimuli\nonmovNat\shell\nmn_shell09.jpg          	1	3	1	nmn_shell09.jpg      	nonmovNat	5	shell     	32	shell09     	328	not_alive	0	still	0	natural 	1	n	0	1    	f	0.292027099989355	1	250.32230459991797	250.42220309993698	0.0998985000187531
233530	100	208	stimuli\movNat\waterfall\mn_waterfall10.jpg      	1	3	1	mn_waterfall10.jpg   	movNat   	3	waterfall 	37	waterfall10 	379	not_alive	0	moves	1	natural 	1	n	0	0    	 	0.0	0	250.47228560002998	250.572191999992	0.0999063999624922
233680	100	209	stimuli\plant2\moss\plant_moss03.jpg             	1	3	1	plant_moss03.jpg     	plant2   	7	moss      	25	moss03      	252	alive    	1	still	0	natural 	1	n	1	0    	 	0.0	0	250.622299299925	250.722181199933	0.0998819000087678
233830	100	210	stimuli\nonmovArt\headphones\nma_headphones08.jpg	1	3	1	nma_headphones08.jpg 	nonmovArt	4	headphones	18	headphones08	187	not_alive	0	still	0	artefact	0	n	0	0    	 	0.0	0	250.77228619996498	250.872190100024	0.0999039000598713
233980	100	211	stimuli\nonmovNat\rock\nmn_rock03.jpg            	1	3	1	nmn_rock03.jpg       	nonmovNat	5	rock      	30	rock03      	302	not_alive	0	still	0	natural 	1	n	0	1    	f	0.39199180004652595	1	250.92230330000197	251.022190899937	0.0998875999357551
234130	100	212	stimuli\nonmovArt\lock\nma_lock03.jpg            	1	3	1	nma_lock03.jpg       	nonmovArt	4	lock      	24	lock03      	242	not_alive	0	still	0	artefact	0	n	0	0    	 	0.0	0	251.07228339999	251.172156999935	0.0998735999455675
234280	100	213	stimuli\plant\flower\plant_flower07.jpg          	1	3	1	plant_flower07.jpg   	plant    	6	flower    	16	flower07    	166	alive    	1	still	0	natural 	1	n	0	0    	 	0.0	0	251.22228580003102	251.32219430000998	0.0999084999784827
234430	100	214	stimuli\animals\dolphin\animal_dolphin08.jpg     	1	3	1	animal_dolphin08.jpg 	animals  	0	dolphin   	12	dolphin08   	127	alive    	1	moves	1	natural 	1	n	0	0    	 	0.0	0	251.372278900002	251.47219150001203	0.0999126000097021
234580	100	215	stimuli\nonmovNat\cliff\nmn_cliff07.jpg          	1	3	1	nmn_cliff07.jpg      	nonmovNat	5	cliff     	7	cliff07     	76	not_alive	0	still	0	natural 	1	n	0	0    	 	0.0	0	251.52228159992995	251.622185699991	0.0999041000613942
234730	100	216	stimuli\plant\cactus\plant_cactus01.jpg          	1	3	1	plant_cactus01.jpg   	plant    	6	cactus    	4	cactus01    	40	alive    	1	still	0	natural 	1	n	0	0    	 	0.0	0	251.67229899996897	251.772176099941	0.0998770999722182
234880	100	217	stimuli\nonmovNat\crystal\nmn_crystal05.jpg      	1	3	1	nmn_crystal05.jpg    	nonmovNat	5	crystal   	10	crystal05   	104	not_alive	0	still	0	natural 	1	n	0	0    	 	0.0	0	251.822288500029	251.922175599961	0.0998870999319478
235030	100	218	stimuli\nonmovNat\sand\nmn_sand07.jpg            	1	3	1	nmn_sand07.jpg       	nonmovNat	5	sand      	31	sand07      	316	not_alive	0	still	0	natural 	1	n	0	0    	 	0.0	0	251.972349099931	252.072181300027	0.0998322000959888
235180	100	219	stimuli\plant\grass\plant_grass04.jpg            	1	3	1	plant_grass04.jpg    	plant    	6	grass     	17	grass04     	173	alive    	1	still	0	natural 	1	n	0	0    	 	0.0	0	252.122276299982	252.222182199941	0.099905899958685
235330	100	220	stimuli\movArt\helicopter\ma_helicopter09.jpg    	1	3	1	ma_helicopter09.jpg  	movArt   	2	helicopter	19	helicopter09	198	not_alive	0	moves	1	artefact	0	n	0	0    	 	0.0	0	252.272274999996	252.372183699976	0.0999086999800056
235480	100	221	stimuli\nonmovNat\crystal\nmn_crystal07.jpg      	1	3	1	nmn_crystal07.jpg    	nonmovNat	5	crystal   	10	crystal07   	106	not_alive	0	still	0	natural 	1	n	0	0    	 	0.0	0	252.422492899932	252.522208799957	0.0997159000253304
235630	100	222	stimuli\nonmovNat\sand\nmn_sand01.jpg            	1	3	1	nmn_sand01.jpg       	nonmovNat	5	sand      	31	sand01      	310	not_alive	0	still	0	natural 	1	n	0	0    	 	0.0	0	252.572287100018	252.672206499963	0.0999193999450653
235780	100	223	stimuli\movArt\train\ma_train05.jpg              	1	3	1	ma_train05.jpg       	movArt   	2	train     	34	train05     	344	not_alive	0	moves	1	artefact	0	n	0	0    	 	0.0	0	252.72230389993598	252.822212899919	0.0999089999822899
235930	100	224	stimuli\animals2\lemur\animal_lemur04.jpg        	1	3	1	animal_lemur04.jpg   	animals2 	1	lemur     	23	lemur04     	233	alive    	1	moves	1	natural 	1	n	0	0    	 	0.0	0	252.872262799996	252.972212899942	0.0999500999459996
236080	100	225	stimuli\movArt\boat\ma_boat03.jpg                	1	3	1	ma_boat03.jpg        	movArt   	2	boat      	2	boat03      	22	not_alive	0	moves	1	artefact	0	n	1	0    	 	0.0	0	253.022297599935	253.122189800022	0.0998922000871971
236229	100	226	stimuli\movArt\boat\ma_boat07.jpg                	1	3	1	ma_boat07.jpg        	movArt   	2	boat      	2	boat07      	26	not_alive	0	moves	1	artefact	0	n	0	0    	 	0.0	0	253.172217099927	253.272214700002	0.0999976000748574
236380	100	227	stimuli\animals\cat\animal_cat01.jpg             	1	3	1	animal_cat01.jpg     	animals  	0	cat       	6	cat01       	60	alive    	1	moves	1	natural 	1	n	0	1    	f	0.392021400039084	1	253.32231989991902	253.42217699997101	0.099857100052759
236530	100	228	stimuli\movArt\helicopter\ma_helicopter06.jpg    	1	3	1	ma_helicopter06.jpg  	movArt   	2	helicopter	19	helicopter06	195	not_alive	0	moves	1	artefact	0	n	0	0    	 	0.0	0	253.472306199954	253.57217209995702	0.0998659000033512
236680	100	229	stimuli\plant\tree\plant_tree05.jpg              	1	3	1	plant_tree05.jpg     	plant    	6	tree      	35	tree05      	354	alive    	1	still	0	natural 	1	n	0	0    	 	0.0	0	253.62234659993598	253.722246299963	0.0998997000278905
236830	100	230	stimuli\plant\cactus\plant_cactus08.jpg          	1	3	1	plant_cactus08.jpg   	plant    	6	cactus    	4	cactus08    	47	alive    	1	still	0	natural 	1	n	0	0    	 	0.0	0	253.772469499963	253.872200699989	0.0997312000254169
236980	100	231	stimuli\nonmovNat\shell\nmn_shell08.jpg          	1	3	1	nmn_shell08.jpg      	nonmovNat	5	shell     	32	shell08     	327	not_alive	0	still	0	natural 	1	n	0	0    	 	0.0	0	253.92229289992198	254.022203999921	0.0999110999982804
237130	100	232	stimuli\movArt\car\ma_car07.jpg                  	1	3	1	ma_car07.jpg         	movArt   	2	car       	5	car07       	56	not_alive	0	moves	1	artefact	0	n	0	0    	 	0.0	0	254.072290399927	254.17215829994498	0.0998679000185802
237280	100	233	stimuli\movArt\bus\ma_bus01.jpg                  	1	3	1	ma_bus01.jpg         	movArt   	2	bus       	3	bus01       	30	not_alive	0	moves	1	artefact	0	n	0	0    	 	0.0	0	254.222294599982	254.322190799983	0.0998962000012397
237429	100	234	stimuli\plant2\clover\plant_clover06.jpg         	1	3	1	plant_clover06.jpg   	plant2   	7	clover    	9	clover06    	95	alive    	1	still	0	natural 	1	n	0	0    	 	0.0	0	254.371396899922	254.471384199918	0.0999872999964282
237579	100	235	stimuli\plant2\clover\plant_clover04.jpg         	1	3	1	plant_clover04.jpg   	plant2   	7	clover    	9	clover04    	93	alive    	1	still	0	natural 	1	n	0	0    	 	0.0	0	254.521394299925	254.621383899939	0.0999896000139415
237729	100	236	stimuli\animals\eagle\animal_eagle02.jpg         	1	3	1	animal_eagle02.jpg   	animals  	0	eagle     	13	eagle02     	131	alive    	1	moves	1	natural 	1	n	0	0    	 	0.0	0	254.671391399926	254.77138049993698	0.0999891000101342
237879	100	237	stimuli\plant\flower\plant_flower07.jpg          	1	3	1	plant_flower07.jpg   	plant    	6	flower    	16	flower07    	166	alive    	1	still	0	natural 	1	n	0	0    	 	0.0	0	254.82139109994802	254.921378799947	0.099987699999474
238029	100	238	stimuli\animals2\whale\animal_whale08.jpg        	1	3	1	animal_whale08.jpg   	animals2 	1	whale     	39	whale08     	397	alive    	1	moves	1	natural 	1	n	0	0    	 	0.0	0	254.971387599944	255.071377599961	0.0999900000169873
238179	100	239	stimuli\animals2\bee\animal_bee07.jpg            	1	3	1	animal_bee07.jpg     	animals2 	1	bee       	0	bee07       	6	alive    	1	moves	1	natural 	1	n	0	0    	 	0.0	0	255.121388899977	255.22136139997698	0.099972500000149
245645	100	240	stimuli\movArt\boat\ma_boat06.jpg                	1	4	1	ma_boat06.jpg        	movArt   	2	boat      	2	boat06      	25	not_alive	0	moves	1	artefact	0	n	0	0    	 	0.0	0	262.588004900026	262.687989500002	0.099984599975869
245795	100	241	stimuli\plant\grass\plant_grass06.jpg            	1	4	1	plant_grass06.jpg    	plant    	6	grass     	17	grass06     	175	alive    	1	still	0	natural 	1	n	0	0    	 	0.0	0	262.737999800011	262.83798700000597	0.0999871999956667
245945	100	242	stimuli\nonmovNat\shell\nmn_shell05.jpg          	1	4	1	nmn_shell05.jpg      	nonmovNat	5	shell     	32	shell05     	324	not_alive	0	still	0	natural 	1	n	0	0    	 	0.0	0	262.887997100013	262.98798919993	0.0999920999165624
246095	100	243	stimuli\nonmovArt\mug\nma_mug06.jpg              	1	4	1	nma_mug06.jpg        	nonmovArt	4	mug       	26	mug06       	265	not_alive	0	still	0	artefact	0	n	0	0    	 	0.0	0	263.037995600025	263.138024899992	0.100029299966991
246245	100	244	stimuli\animals2\lemur\animal_lemur04.jpg        	1	4	1	animal_lemur04.jpg   	animals2 	1	lemur     	23	lemur04     	233	alive    	1	moves	1	natural 	1	n	0	0    	 	0.0	0	263.18799599993497	263.287983199931	0.0999871999956667
246395	100	245	stimuli\plant\cactus\plant_cactus07.jpg          	1	4	1	plant_cactus07.jpg   	plant    	6	cactus    	4	cactus07    	46	alive    	1	still	0	natural 	1	n	0	0    	 	0.0	0	263.337991299923	263.43798399996	0.0999927000375464
246545	100	246	stimuli\animals\dolphin\animal_dolphin07.jpg     	1	4	1	animal_dolphin07.jpg 	animals  	0	dolphin   	12	dolphin07   	126	alive    	1	moves	1	natural 	1	n	0	0    	 	0.0	0	263.48799189995	263.58797959995	0.099987699999474
246695	100	247	stimuli\plant2\moss\plant_moss02.jpg             	1	4	1	plant_moss02.jpg     	plant2   	7	moss      	25	moss02      	251	alive    	1	still	0	natural 	1	n	0	0    	 	0.0	0	263.637991899974	263.73799840000004	0.10000650002621099
246845	100	248	stimuli\plant\flower\plant_flower08.jpg          	1	4	1	plant_flower08.jpg   	plant    	6	flower    	16	flower08    	167	alive    	1	still	0	natural 	1	n	0	0    	 	0.0	0	263.7879923	263.88797869999	0.0999863999895751
246995	100	249	stimuli\nonmovNat\sand\nmn_sand06.jpg            	1	4	1	nmn_sand06.jpg       	nonmovNat	5	sand      	31	sand06      	315	not_alive	0	still	0	natural 	1	n	0	0    	 	0.0	0	263.938008999918	264.037976399995	0.0999674000777304
247145	100	250	stimuli\nonmovArt\mug\nma_mug09.jpg              	1	4	1	nma_mug09.jpg        	nonmovArt	4	mug       	26	mug09       	268	not_alive	0	still	0	artefact	0	n	0	0    	 	0.0	0	264.087987100007	264.187976100016	0.0999890000093728
247295	100	251	stimuli\movNat\fire\mn_fire10.jpg                	1	4	1	mn_fire10.jpg        	movNat   	3	fire      	15	fire10      	159	not_alive	0	moves	1	natural 	1	n	0	0    	 	0.0	0	264.237986100023	264.337975999922	0.0999898998998105
247445	100	252	stimuli\nonmovArt\lock\nma_lock03.jpg            	1	4	1	nma_lock03.jpg       	nonmovArt	4	lock      	24	lock03      	242	not_alive	0	still	0	artefact	0	n	1	0    	 	0.0	0	264.387983600027	264.487974399934	0.0999907999066636
247595	100	253	stimuli\nonmovNat\rock\nmn_rock04.jpg            	1	4	1	nmn_rock04.jpg       	nonmovNat	5	rock      	30	rock04      	303	not_alive	0	still	0	natural 	1	n	0	0    	 	0.0	0	264.537984799943	264.637972299941	0.099987499997951
247745	100	254	stimuli\animals\eagle\animal_eagle03.jpg         	1	4	1	animal_eagle03.jpg   	animals  	0	eagle     	13	eagle03     	132	alive    	1	moves	1	natural 	1	n	0	1    	f	0.30021909996867197	1	264.687988199992	264.787970699952	0.0999824999598786
247895	100	255	stimuli\nonmovNat\cliff\nmn_cliff01.jpg          	1	4	1	nmn_cliff01.jpg      	nonmovNat	5	cliff     	7	cliff01     	70	not_alive	0	still	0	natural 	1	n	0	0    	 	0.0	0	264.837979099946	264.937986899982	0.10000780003611
248045	100	256	stimuli\movArt\bus\ma_bus06.jpg                  	1	4	1	ma_bus06.jpg         	movArt   	2	bus       	3	bus06       	35	not_alive	0	moves	1	artefact	0	n	0	0    	 	0.0	0	264.987980099977	265.087969799992	0.0999897000147029
248195	100	257	stimuli\plant\flower\plant_flower08.jpg          	1	4	1	plant_flower08.jpg   	plant    	6	flower    	16	flower08    	167	alive    	1	still	0	natural 	1	n	0	0    	 	0.0	0	265.13797739997995	265.23796780000004	0.0999904000200331
248345	100	258	stimuli\plant\vine\plant_vine05.jpg              	1	4	1	plant_vine05.jpg     	plant    	6	vine      	36	vine05      	364	alive    	1	still	0	natural 	1	n	0	0    	 	0.0	0	265.287975799991	265.387964399997	0.09998860000632699
248495	100	259	stimuli\plant2\lemontree\plant_lemontree08.jpg   	1	4	1	plant_lemontree08.jpg	plant2   	7	lemontree 	22	lemontree08 	227	alive    	1	still	0	natural 	1	n	0	0    	 	0.0	0	265.437973499997	265.53798329993197	0.10000979993492401
248645	100	260	stimuli\nonmovArt\bench\nma_bench10.jpg          	1	4	1	nma_bench10.jpg      	nonmovArt	4	bench     	1	bench10     	19	not_alive	0	still	0	artefact	0	n	0	0    	 	0.0	0	265.587974600028	265.68796329991903	0.0999886998906731
248795	100	261	stimuli\movNat\waves\mn_waves05.jpg              	1	4	1	mn_waves05.jpg       	movNat   	3	waves     	38	waves05     	384	not_alive	0	moves	1	natural 	1	n	0	0    	 	0.0	0	265.73797180003	265.83796199993196	0.0999901999020949
248945	100	262	stimuli\plant\cactus\plant_cactus09.jpg          	1	4	1	plant_cactus09.jpg   	plant    	6	cactus    	4	cactus09    	48	alive    	1	still	0	natural 	1	n	0	0    	 	0.0	0	265.887971999939	265.987961699953	0.0999897000147029
249095	100	263	stimuli\nonmovArt\clothespeg\nma_clothespeg09.jpg	1	4	1	nma_clothespeg09.jpg 	nonmovArt	4	clothespeg	8	clothespeg09	88	not_alive	0	still	0	artefact	0	n	0	0    	 	0.0	0	266.037968499935	266.137961999979	0.099993500043638
249245	100	264	stimuli\animals2\pigeon\animal_pigeon07.jpg      	1	4	1	animal_pigeon07.jpg  	animals2 	1	pigeon    	28	pigeon07    	286	alive    	1	moves	1	natural 	1	n	0	0    	 	0.0	0	266.187970299972	266.287960899994	0.099990600021556
249395	100	265	stimuli\nonmovNat\rock\nmn_rock05.jpg            	1	4	1	nmn_rock05.jpg       	nonmovNat	5	rock      	30	rock05      	304	not_alive	0	still	0	natural 	1	n	0	0    	 	0.0	0	266.337967899977	266.4379586	0.0999907000223174
249546	100	266	stimuli\animals2\bee\animal_bee04.jpg            	1	4	1	animal_bee04.jpg     	animals2 	1	bee       	0	bee04       	3	alive    	1	moves	1	natural 	1	n	0	0    	 	0.0	0	266.48882139998	266.58871619997103	0.0998947999905794
249696	100	267	stimuli\animals\cat\animal_cat04.jpg             	1	4	1	animal_cat04.jpg     	animals  	0	cat       	6	cat04       	63	alive    	1	moves	1	natural 	1	n	0	0    	 	0.0	0	266.638809000026	266.73872459994203	0.0999155999161303
249846	100	268	stimuli\animals\eagle\animal_eagle08.jpg         	1	4	1	animal_eagle08.jpg   	animals  	0	eagle     	13	eagle08     	137	alive    	1	moves	1	natural 	1	n	0	0    	 	0.0	0	266.788804700016	266.888737099944	0.0999323999276384
249996	100	269	stimuli\animals2\whale\animal_whale05.jpg        	1	4	1	animal_whale05.jpg   	animals2 	1	whale     	39	whale05     	394	alive    	1	moves	1	natural 	1	n	0	0    	 	0.0	0	266.93883769994096	267.038731099921	0.0998933999799192
250146	100	270	stimuli\nonmovArt\headphones\nma_headphones01.jpg	1	4	1	nma_headphones01.jpg 	nonmovArt	4	headphones	18	headphones01	180	not_alive	0	still	0	artefact	0	n	0	0    	 	0.0	0	267.088807599968	267.188690999988	0.0998834000201895
250296	100	271	stimuli\animals\eagle\animal_eagle03.jpg         	1	4	1	animal_eagle03.jpg   	animals  	0	eagle     	13	eagle03     	132	alive    	1	moves	1	natural 	1	n	0	0    	 	0.0	0	267.23882859991903	267.338719299994	0.0998907000757753
250446	100	272	stimuli\animals\horse\animal_horse03.jpg         	1	4	1	animal_horse03.jpg   	animals  	0	horse     	20	horse03     	202	alive    	1	moves	1	natural 	1	n	0	0    	 	0.0	0	267.38882170000596	267.488706899923	0.0998851999174803
250596	100	273	stimuli\plant2\clover\plant_clover08.jpg         	1	4	1	plant_clover08.jpg   	plant2   	7	clover    	9	clover08    	97	alive    	1	still	0	natural 	1	n	0	0    	 	0.0	0	267.538821500028	267.638721899944	0.0999003999168053
250746	100	274	stimuli\movNat\river\mn_river07.jpg              	1	4	1	mn_river07.jpg       	movNat   	3	river     	29	river07     	296	not_alive	0	moves	1	natural 	1	n	0	0    	 	0.0	0	267.688801000011	267.788727900013	0.09992690000217401
250896	100	275	stimuli\animals\cat\animal_cat03.jpg             	1	4	1	animal_cat03.jpg     	animals  	0	cat       	6	cat03       	62	alive    	1	moves	1	natural 	1	n	0	0    	 	0.0	0	267.838810599991	267.938704999979	0.0998943999875336
251046	100	276	stimuli\plant2\moss\plant_moss04.jpg             	1	4	1	plant_moss04.jpg     	plant2   	7	moss      	25	moss04      	253	alive    	1	still	0	natural 	1	n	0	0    	 	0.0	0	267.988802999957	268.088699699962	0.09989670000504701
251196	100	277	stimuli\movArt\car\ma_car03.jpg                  	1	4	1	ma_car03.jpg         	movArt   	2	car       	5	car03       	52	not_alive	0	moves	1	artefact	0	n	0	0    	 	0.0	0	268.13880580000097	268.23869699996396	0.0998911999631673
251346	100	278	stimuli\nonmovNat\rock\nmn_rock01.jpg            	1	4	1	nmn_rock01.jpg       	nonmovNat	5	rock      	30	rock01      	300	not_alive	0	still	0	natural 	1	n	0	0    	 	0.0	0	268.288800999988	268.388710599975	0.0999095999868586
251496	100	279	stimuli\movArt\train\ma_train02.jpg              	1	4	1	ma_train02.jpg       	movArt   	2	train     	34	train02     	341	not_alive	0	moves	1	artefact	0	n	0	0    	 	0.0	0	268.43880210002004	268.538717599935	0.0999154999153688
251646	100	280	stimuli\nonmovArt\bench\nma_bench07.jpg          	1	4	1	nma_bench07.jpg      	nonmovArt	4	bench     	1	bench07     	16	not_alive	0	still	0	artefact	0	n	0	0    	 	0.0	0	268.58879780001	268.688709800015	0.0999120000051334
251796	100	281	stimuli\movNat\fire\mn_fire10.jpg                	1	4	1	mn_fire10.jpg        	movNat   	3	fire      	15	fire10      	159	not_alive	0	moves	1	natural 	1	n	0	0    	 	0.0	0	268.738827700028	268.838723000023	0.0998952999943867
251946	100	282	stimuli\movArt\bus\ma_bus04.jpg                  	1	4	1	ma_bus04.jpg         	movArt   	2	bus       	3	bus04       	33	not_alive	0	moves	1	artefact	0	n	0	0    	 	0.0	0	268.888801999972	268.988742999965	0.0999409999931231
252096	100	283	stimuli\movNat\waterfall\mn_waterfall04.jpg      	1	4	1	mn_waterfall04.jpg   	movNat   	3	waterfall 	37	waterfall04 	373	not_alive	0	moves	1	natural 	1	n	0	0    	 	0.0	0	269.038922399981	269.138713199995	0.0997908000135794
252246	100	284	stimuli\animals2\whale\animal_whale05.jpg        	1	4	1	animal_whale05.jpg   	animals2 	1	whale     	39	whale05     	394	alive    	1	moves	1	natural 	1	n	0	0    	 	0.0	0	269.188818400027	269.288705799961	0.0998873999342322
252396	100	285	stimuli\movNat\hotspring\mn_hotspring06.jpg      	1	4	1	mn_hotspring06.jpg   	movNat   	3	hotspring 	21	hotspring06 	215	not_alive	0	moves	1	natural 	1	n	0	0    	 	0.0	0	269.338792999973	269.438697099918	0.0999040999449789
252546	100	286	stimuli\nonmovArt\bench\nma_bench02.jpg          	1	4	1	nma_bench02.jpg      	nonmovArt	4	bench     	1	bench02     	11	not_alive	0	still	0	artefact	0	n	0	0    	 	0.0	0	269.488784799934	269.588699799962	0.0999150000279769
252696	100	287	stimuli\movArt\boat\ma_boat04.jpg                	1	4	1	ma_boat04.jpg        	movArt   	2	boat      	2	boat04      	23	not_alive	0	moves	1	artefact	0	n	0	0    	 	0.0	0	269.638799199951	269.738684699987	0.09988550003618
252846	100	288	stimuli\plant\tree\plant_tree04.jpg              	1	4	1	plant_tree04.jpg     	plant    	6	tree      	35	tree04      	353	alive    	1	still	0	natural 	1	n	0	0    	 	0.0	0	269.78879929997504	269.888673399924	0.0998740999493748
252996	100	289	stimuli\plant2\clover\plant_clover01.jpg         	1	4	1	plant_clover01.jpg   	plant2   	7	clover    	9	clover01    	90	alive    	1	still	0	natural 	1	n	0	0    	 	0.0	0	269.93879029992996	270.038695399999	0.0999051000690087
253146	100	290	stimuli\movArt\bus\ma_bus09.jpg                  	1	4	1	ma_bus09.jpg         	movArt   	2	bus       	3	bus09       	38	not_alive	0	moves	1	artefact	0	n	0	0    	 	0.0	0	270.08878949994704	270.18869390001	0.0999044000636786
253296	100	291	stimuli\animals\dolphin\animal_dolphin02.jpg     	1	4	1	animal_dolphin02.jpg 	animals  	0	dolphin   	12	dolphin02   	121	alive    	1	moves	1	natural 	1	n	0	0    	 	0.0	0	270.238787499955	270.338691800018	0.0999043000629171
253446	100	292	stimuli\movArt\train\ma_train03.jpg              	1	4	1	ma_train03.jpg       	movArt   	2	train     	34	train03     	342	not_alive	0	moves	1	artefact	0	n	0	0    	 	0.0	0	270.388763400028	270.488682299969	0.0999188999412581
253596	100	293	stimuli\nonmovArt\lock\nma_lock07.jpg            	1	4	1	nma_lock07.jpg       	nonmovArt	4	lock      	24	lock07      	246	not_alive	0	still	0	artefact	0	n	0	0    	 	0.0	0	270.538784799981	270.638682099991	0.0998973000096157
253746	100	294	stimuli\plant2\fern\plant_fern05.jpg             	1	4	1	plant_fern05.jpg     	plant2   	7	fern      	14	fern05      	144	alive    	1	still	0	natural 	1	n	0	0    	 	0.0	0	270.688779699965	270.78872810001496	0.0999484000494703
253896	100	295	stimuli\movNat\fire\mn_fire02.jpg                	1	4	1	mn_fire02.jpg        	movNat   	3	fire      	15	fire02      	151	not_alive	0	moves	1	natural 	1	n	0	0    	 	0.0	0	270.83889559994	270.938687999966	0.0997924000257626
254046	100	296	stimuli\movNat\waves\mn_waves06.jpg              	1	4	1	mn_waves06.jpg       	movNat   	3	waves     	38	waves06     	385	not_alive	0	moves	1	natural 	1	n	1	0    	 	0.0	0	270.988779600011	271.08867820003104	0.0998986000195145
254196	100	297	stimuli\plant2\palmtree\plant_palmtree04.jpg     	1	4	1	plant_palmtree04.jpg 	plant2   	7	palmtree  	27	palmtree04  	273	alive    	1	still	0	natural 	1	n	0	0    	 	0.0	0	271.138790600002	271.238684699987	0.0998940999852493
254346	100	298	stimuli\nonmovArt\headphones\nma_headphones09.jpg	1	4	1	nma_headphones09.jpg 	nonmovArt	4	headphones	18	headphones09	188	not_alive	0	still	0	artefact	0	n	0	1    	f	0.391986500006169	1	271.288776999922	271.388686300023	0.0999093001009896
254496	100	299	stimuli\animals\cat\animal_cat04.jpg             	1	4	1	animal_cat04.jpg     	animals  	0	cat       	6	cat04       	63	alive    	1	moves	1	natural 	1	n	0	0    	 	0.0	0	271.438776099938	271.538681000005	0.0999049000674858
254646	100	300	stimuli\movNat\waterfall\mn_waterfall03.jpg      	1	4	1	mn_waterfall03.jpg   	movNat   	3	waterfall 	37	waterfall03 	372	not_alive	0	moves	1	natural 	1	n	0	0    	 	0.0	0	271.588771099923	271.688688199967	0.0999171000439673
254796	100	301	stimuli\nonmovArt\clothespeg\nma_clothespeg07.jpg	1	4	1	nma_clothespeg07.jpg 	nonmovArt	4	clothespeg	8	clothespeg07	86	not_alive	0	still	0	artefact	0	n	0	0    	 	0.0	0	271.738779200008	271.838684799965	0.0999055999564006
254946	100	302	stimuli\plant\grass\plant_grass02.jpg            	1	4	1	plant_grass02.jpg    	plant    	6	grass     	17	grass02     	171	alive    	1	still	0	natural 	1	n	0	0    	 	0.0	0	271.888743599993	271.98867019999295	0.0999265999998897
255096	100	303	stimuli\movNat\waves\mn_waves05.jpg              	1	4	1	mn_waves05.jpg       	movNat   	3	waves     	38	waves05     	384	not_alive	0	moves	1	natural 	1	n	0	0    	 	0.0	0	272.038786199992	272.13868319999904	0.0998970000073313
255246	100	304	stimuli\animals2\pigeon\animal_pigeon04.jpg      	1	4	1	animal_pigeon04.jpg  	animals2 	1	pigeon    	28	pigeon04    	283	alive    	1	moves	1	natural 	1	n	0	0    	 	0.0	0	272.188755800016	272.288679599995	0.0999237999785691
255396	100	305	stimuli\movArt\car\ma_car01.jpg                  	1	4	1	ma_car01.jpg         	movArt   	2	car       	5	car01       	50	not_alive	0	moves	1	artefact	0	n	0	0    	 	0.0	0	272.338784500025	272.438703599968	0.09991909994278099
255546	100	306	stimuli\animals2\whale\animal_whale01.jpg        	1	4	1	animal_whale01.jpg   	animals2 	1	whale     	39	whale01     	390	alive    	1	moves	1	natural 	1	n	0	0    	 	0.0	0	272.488752599922	272.58874299994204	0.0999904000200331
255696	100	307	stimuli\nonmovArt\headphones\nma_headphones10.jpg	1	4	1	nma_headphones10.jpg 	nonmovArt	4	headphones	18	headphones10	189	not_alive	0	still	0	artefact	0	n	0	0    	 	0.0	0	272.638833199977	272.73867110000003	0.0998379000229761
255846	100	308	stimuli\animals\horse\animal_horse01.jpg         	1	4	1	animal_horse01.jpg   	animals  	0	horse     	20	horse01     	200	alive    	1	moves	1	natural 	1	n	0	0    	 	0.0	0	272.788770299987	272.888685100013	0.09991480002645402
255996	100	309	stimuli\plant\vine\plant_vine01.jpg              	1	4	1	plant_vine01.jpg     	plant    	6	vine      	36	vine01      	360	alive    	1	still	0	natural 	1	n	0	0    	 	0.0	0	272.938776699943	273.038678699988	0.0999020000454038
256146	100	310	stimuli\plant\vine\plant_vine10.jpg              	1	4	1	plant_vine10.jpg     	plant    	6	vine      	36	vine10      	369	alive    	1	still	0	natural 	1	n	0	0    	 	0.0	0	273.088772999938	273.188670199947	0.0998972000088542
256296	100	311	stimuli\plant2\lemontree\plant_lemontree08.jpg   	1	4	1	plant_lemontree08.jpg	plant2   	7	lemontree 	22	lemontree08 	227	alive    	1	still	0	natural 	1	n	0	0    	 	0.0	0	273.238765200018	273.33866419992404	0.099898999906145
256446	100	312	stimuli\plant2\moss\plant_moss01.jpg             	1	4	1	plant_moss01.jpg     	plant2   	7	moss      	25	moss01      	250	alive    	1	still	0	natural 	1	n	0	0    	 	0.0	0	273.388758099987	273.48865690000804	0.0998988000210374
256596	100	313	stimuli\animals\dog\animal_dog09.jpg             	1	4	1	animal_dog09.jpg     	animals  	0	dog       	11	dog09       	118	alive    	1	moves	1	natural 	1	n	0	0    	 	0.0	0	273.53875659999903	273.638655200019	0.0998986000195145
256746	100	314	stimuli\animals2\lemur\animal_lemur09.jpg        	1	4	1	animal_lemur09.jpg   	animals2 	1	lemur     	23	lemur09     	238	alive    	1	moves	1	natural 	1	n	0	0    	 	0.0	0	273.688724100008	273.788668700028	0.0999446000205352
256896	100	315	stimuli\nonmovNat\shell\nmn_shell01.jpg          	1	4	1	nmn_shell01.jpg      	nonmovNat	5	shell     	32	shell01     	320	not_alive	0	still	0	natural 	1	n	0	0    	 	0.0	0	273.83875889994704	273.93865599995496	0.0998971000080928
257046	100	316	stimuli\nonmovArt\mug\nma_mug03.jpg              	1	4	1	nma_mug03.jpg        	nonmovArt	4	mug       	26	mug03       	262	not_alive	0	still	0	artefact	0	n	0	0    	 	0.0	0	273.988759599975	274.088652899954	0.0998932999791577
257196	100	317	stimuli\nonmovArt\lock\nma_lock05.jpg            	1	4	1	nma_lock05.jpg       	nonmovArt	4	lock      	24	lock05      	244	not_alive	0	still	0	artefact	0	n	0	0    	 	0.0	0	274.138766199932	274.23868009995203	0.099913900019601
257346	100	318	stimuli\movNat\river\mn_river05.jpg              	1	4	1	mn_river05.jpg       	movNat   	3	river     	29	river05     	294	not_alive	0	moves	1	natural 	1	n	0	0    	 	0.0	0	274.288755599991	274.388724099961	0.099968499969691
257496	100	319	stimuli\movNat\hotspring\mn_hotspring05.jpg      	1	4	1	mn_hotspring05.jpg   	movNat   	3	hotspring 	21	hotspring05 	214	not_alive	0	moves	1	natural 	1	n	0	0    	 	0.0	0	274.438765699975	274.538645999972	0.0998802999965846
265463	100	320	stimuli\nonmovNat\cliff\nmn_cliff01.jpg          	1	5	1	nmn_cliff01.jpg      	nonmovNat	5	cliff     	7	cliff01     	70	not_alive	0	still	0	natural 	1	n	0	0    	 	0.0	0	282.405356499948	282.505257399986	0.0999009000370279
265613	100	321	stimuli\animals\dog\animal_dog05.jpg             	1	5	1	animal_dog05.jpg     	animals  	0	dog       	11	dog05       	114	alive    	1	moves	1	natural 	1	n	0	0    	 	0.0	0	282.55535369995096	282.655349500012	0.0999958000611514
265763	100	322	stimuli\nonmovNat\sand\nmn_sand08.jpg            	1	5	1	nmn_sand08.jpg       	nonmovNat	5	sand      	31	sand08      	317	not_alive	0	still	0	natural 	1	n	0	0    	 	0.0	0	282.705438999925	282.805255000014	0.0998160000890493
265913	100	323	stimuli\animals2\bee\animal_bee09.jpg            	1	5	1	animal_bee09.jpg     	animals2 	1	bee       	0	bee09       	8	alive    	1	moves	1	natural 	1	n	0	0    	 	0.0	0	282.855354800005	282.955248299986	0.0998934999806806
266063	100	324	stimuli\nonmovNat\crystal\nmn_crystal05.jpg      	1	5	1	nmn_crystal05.jpg    	nonmovNat	5	crystal   	10	crystal05   	104	not_alive	0	still	0	natural 	1	n	0	0    	 	0.0	0	283.005342899938	283.105241499958	0.0998986000195145
266213	100	325	stimuli\plant2\clover\plant_clover02.jpg         	1	5	1	plant_clover02.jpg   	plant2   	7	clover    	9	clover02    	91	alive    	1	still	0	natural 	1	n	0	0    	 	0.0	0	283.15533169999196	283.255250999937	0.0999192999443039
266363	100	326	stimuli\animals\horse\animal_horse04.jpg         	1	5	1	animal_horse04.jpg   	animals  	0	horse     	20	horse04     	203	alive    	1	moves	1	natural 	1	n	0	0    	 	0.0	0	283.305346800014	283.405259100022	0.0999123000074178
266513	100	327	stimuli\movArt\boat\ma_boat05.jpg                	1	5	1	ma_boat05.jpg        	movArt   	2	boat      	2	boat05      	24	not_alive	0	moves	1	artefact	0	n	0	0    	 	0.0	0	283.45534799993	283.555247099954	0.0998991000233218
266663	100	328	stimuli\nonmovNat\crystal\nmn_crystal08.jpg      	1	5	1	nmn_crystal08.jpg    	nonmovNat	5	crystal   	10	crystal08   	107	not_alive	0	still	0	natural 	1	n	0	0    	 	0.0	0	283.605335799977	283.705242099939	0.0999062999617308
266813	100	329	stimuli\animals2\bee\animal_bee03.jpg            	1	5	1	animal_bee03.jpg     	animals2 	1	bee       	0	bee03       	2	alive    	1	moves	1	natural 	1	n	0	0    	 	0.0	0	283.755322700017	283.855252899928	0.0999301999108866
266963	100	330	stimuli\movArt\helicopter\ma_helicopter07.jpg    	1	5	1	ma_helicopter07.jpg  	movArt   	2	helicopter	19	helicopter07	196	not_alive	0	moves	1	artefact	0	n	0	0    	 	0.0	0	283.90535190003	284.005246400018	0.0998944999882951
267113	100	331	stimuli\animals\dolphin\animal_dolphin05.jpg     	1	5	1	animal_dolphin05.jpg 	animals  	0	dolphin   	12	dolphin05   	124	alive    	1	moves	1	natural 	1	n	0	0    	 	0.0	0	284.055345700006	284.155230100034	0.09988440002780401
267263	100	332	stimuli\movNat\river\mn_river05.jpg              	1	5	1	mn_river05.jpg       	movNat   	3	river     	29	river05     	294	not_alive	0	moves	1	natural 	1	n	0	0    	 	0.0	0	284.205343900016	284.305261399946	0.0999174999305978
267413	100	333	stimuli\animals2\tiger\animal_tiger04.jpg        	1	5	1	animal_tiger04.jpg   	animals2 	1	tiger     	33	tiger04     	333	alive    	1	moves	1	natural 	1	n	0	0    	 	0.0	0	284.355377299944	284.455351099954	0.0999738000100478
267563	100	334	stimuli\plant2\palmtree\plant_palmtree08.jpg     	1	5	1	plant_palmtree08.jpg 	plant2   	7	palmtree  	27	palmtree08  	277	alive    	1	still	0	natural 	1	n	0	0    	 	0.0	0	284.505433399929	284.605240999954	0.0998076000250876
267713	100	335	stimuli\plant\cactus\plant_cactus03.jpg          	1	5	1	plant_cactus03.jpg   	plant    	6	cactus    	4	cactus03    	42	alive    	1	still	0	natural 	1	n	0	0    	 	0.0	0	284.655319000012	284.755232200027	0.0999132000142708
267863	100	336	stimuli\plant\tree\plant_tree01.jpg              	1	5	1	plant_tree01.jpg     	plant    	6	tree      	35	tree01      	350	alive    	1	still	0	natural 	1	n	0	0    	 	0.0	0	284.805322199944	284.905224799993	0.0999026000499725
268013	100	337	stimuli\movArt\train\ma_train04.jpg              	1	5	1	ma_train04.jpg       	movArt   	2	train     	34	train04     	343	not_alive	0	moves	1	artefact	0	n	0	0    	 	0.0	0	284.955323199974	285.055236299988	0.0999131000135094
268163	100	338	stimuli\movNat\hotspring\mn_hotspring02.jpg      	1	5	1	mn_hotspring02.jpg   	movNat   	3	hotspring 	21	hotspring02 	211	not_alive	0	moves	1	natural 	1	n	0	0    	 	0.0	0	285.105313699925	285.205225299927	0.0999116000020876
268313	100	339	stimuli\plant\flower\plant_flower06.jpg          	1	5	1	plant_flower06.jpg   	plant    	6	flower    	16	flower06    	165	alive    	1	still	0	natural 	1	n	0	0    	 	0.0	0	285.255322500016	285.355231599999	0.0999090999830514
268463	100	340	stimuli\nonmovNat\cliff\nmn_cliff07.jpg          	1	5	1	nmn_cliff07.jpg      	nonmovNat	5	cliff     	7	cliff07     	76	not_alive	0	still	0	natural 	1	n	0	0    	 	0.0	0	285.40532209991903	285.505238899961	0.09991680004168302
268613	100	341	stimuli\movNat\waterfall\mn_waterfall01.jpg      	1	5	1	mn_waterfall01.jpg   	movNat   	3	waterfall 	37	waterfall01 	370	not_alive	0	moves	1	natural 	1	n	0	0    	 	0.0	0	285.555388699984	285.655208099983	0.0998193999985233
268763	100	342	stimuli\animals2\tiger\animal_tiger10.jpg        	1	5	1	animal_tiger10.jpg   	animals2 	1	tiger     	33	tiger10     	339	alive    	1	moves	1	natural 	1	n	0	0    	 	0.0	0	285.705327400006	285.805230399943	0.09990299993660301
268913	100	343	stimuli\nonmovNat\shell\nmn_shell02.jpg          	1	5	1	nmn_shell02.jpg      	nonmovNat	5	shell     	32	shell02     	321	not_alive	0	still	0	natural 	1	n	0	0    	 	0.0	0	285.855318399961	285.955255999928	0.0999375999672338
269063	100	344	stimuli\animals2\lemur\animal_lemur09.jpg        	1	5	1	animal_lemur09.jpg   	animals2 	1	lemur     	23	lemur09     	238	alive    	1	moves	1	natural 	1	n	0	0    	 	0.0	0	286.005311399931	286.10524349997297	0.0999321000417694
269213	100	345	stimuli\nonmovNat\crystal\nmn_crystal02.jpg      	1	5	1	nmn_crystal02.jpg    	nonmovNat	5	crystal   	10	crystal02   	101	not_alive	0	still	0	natural 	1	n	0	0    	 	0.0	0	286.155332199996	286.255330999964	0.0999987999675795
269363	100	346	stimuli\plant2\lemontree\plant_lemontree08.jpg   	1	5	1	plant_lemontree08.jpg	plant2   	7	lemontree 	22	lemontree08 	227	alive    	1	still	0	natural 	1	n	0	0    	 	0.0	0	286.305359699996	286.405223499984	0.0998637999873608
269513	100	347	stimuli\plant2\palmtree\plant_palmtree04.jpg     	1	5	1	plant_palmtree04.jpg 	plant2   	7	palmtree  	27	palmtree04  	273	alive    	1	still	0	natural 	1	n	0	0    	 	0.0	0	286.45531029999296	286.55523139995097	0.09992109995801
269663	100	348	stimuli\movArt\helicopter\ma_helicopter05.jpg    	1	5	1	ma_helicopter05.jpg  	movArt   	2	helicopter	19	helicopter05	194	not_alive	0	moves	1	artefact	0	n	0	0    	 	0.0	0	286.605315099936	286.705208300031	0.0998932000948116
269813	100	349	stimuli\plant2\fern\plant_fern07.jpg             	1	5	1	plant_fern07.jpg     	plant2   	7	fern      	14	fern07      	146	alive    	1	still	0	natural 	1	n	0	0    	 	0.0	0	286.755309699918	286.855215699994	0.0999060000758618
269963	100	350	stimuli\nonmovArt\clothespeg\nma_clothespeg10.jpg	1	5	1	nma_clothespeg10.jpg 	nonmovArt	4	clothespeg	8	clothespeg10	89	not_alive	0	still	0	artefact	0	n	0	0    	 	0.0	0	286.905317299999	287.005209299969	0.0998919999692589
270113	100	351	stimuli\plant\tree\plant_tree04.jpg              	1	5	1	plant_tree04.jpg     	plant    	6	tree      	35	tree04      	353	alive    	1	still	0	natural 	1	n	0	0    	 	0.0	0	287.055305799935	287.155219499953	0.09991370001807799
270263	100	352	stimuli\plant\grass\plant_grass03.jpg            	1	5	1	plant_grass03.jpg    	plant    	6	grass     	17	grass03     	172	alive    	1	still	0	natural 	1	n	0	0    	 	0.0	0	287.20530709996797	287.305213599931	0.0999064999632537
270413	100	353	stimuli\movArt\car\ma_car02.jpg                  	1	5	1	ma_car02.jpg         	movArt   	2	car       	5	car02       	51	not_alive	0	moves	1	artefact	0	n	0	0    	 	0.0	0	287.355297200033	287.455215499969	0.0999182999366894
270563	100	354	stimuli\animals2\pigeon\animal_pigeon07.jpg      	1	5	1	animal_pigeon07.jpg  	animals2 	1	pigeon    	28	pigeon07    	286	alive    	1	moves	1	natural 	1	n	0	0    	 	0.0	0	287.505295699928	287.605202800012	0.0999071000842377
270713	100	355	stimuli\animals\dog\animal_dog09.jpg             	1	5	1	animal_dog09.jpg     	animals  	0	dog       	11	dog09       	118	alive    	1	moves	1	natural 	1	n	0	0    	 	0.0	0	287.655297499965	287.755212299991	0.09991480002645402
270863	100	356	stimuli\plant2\fern\plant_fern05.jpg             	1	5	1	plant_fern05.jpg     	plant2   	7	fern      	14	fern05      	144	alive    	1	still	0	natural 	1	n	0	0    	 	0.0	0	287.805311199976	287.905208399985	0.0998972000088542
271013	100	357	stimuli\movArt\helicopter\ma_helicopter07.jpg    	1	5	1	ma_helicopter07.jpg  	movArt   	2	helicopter	19	helicopter07	196	not_alive	0	moves	1	artefact	0	n	0	0    	 	0.0	0	287.955487699946	288.05531039997004	0.0998227000236511
271163	100	358	stimuli\animals2\tiger\animal_tiger06.jpg        	1	5	1	animal_tiger06.jpg   	animals2 	1	tiger     	33	tiger06     	335	alive    	1	moves	1	natural 	1	n	0	0    	 	0.0	0	288.105328699923	288.205199899967	0.09987120004370802
271313	100	359	stimuli\nonmovNat\sand\nmn_sand01.jpg            	1	5	1	nmn_sand01.jpg       	nonmovNat	5	sand      	31	sand01      	310	not_alive	0	still	0	natural 	1	n	0	0    	 	0.0	0	288.25528329995	288.355181599967	0.0998983000172302
271463	100	360	stimuli\plant\cactus\plant_cactus04.jpg          	1	5	1	plant_cactus04.jpg   	plant    	6	cactus    	4	cactus04    	43	alive    	1	still	0	natural 	1	n	0	0    	 	0.0	0	288.40529569995095	288.50529599992996	0.10000029997900099
271613	100	361	stimuli\animals\cat\animal_cat02.jpg             	1	5	1	animal_cat02.jpg     	animals  	0	cat       	6	cat02       	61	alive    	1	moves	1	natural 	1	n	0	0    	 	0.0	0	288.5552838	288.655217199936	0.0999333999352529
271763	100	362	stimuli\nonmovArt\headphones\nma_headphones05.jpg	1	5	1	nma_headphones05.jpg 	nonmovArt	4	headphones	18	headphones05	184	not_alive	0	still	0	artefact	0	n	0	0    	 	0.0	0	288.705291299964	288.805204099976	0.099912800011225
271913	100	363	stimuli\nonmovNat\rock\nmn_rock05.jpg            	1	5	1	nmn_rock05.jpg       	nonmovNat	5	rock      	30	rock05      	304	not_alive	0	still	0	natural 	1	n	0	0    	 	0.0	0	288.855307199992	288.955184399965	0.0998771999729797
272063	100	364	stimuli\plant\cactus\plant_cactus04.jpg          	1	5	1	plant_cactus04.jpg   	plant    	6	cactus    	4	cactus04    	43	alive    	1	still	0	natural 	1	n	0	0    	 	0.0	0	289.005287099979	289.105205400032	0.0999183000531047
272213	100	365	stimuli\animals\eagle\animal_eagle04.jpg         	1	5	1	animal_eagle04.jpg   	animals  	0	eagle     	13	eagle04     	133	alive    	1	moves	1	natural 	1	n	0	0    	 	0.0	0	289.155311799957	289.25516840000597	0.0998566000489518
272363	100	366	stimuli\plant2\moss\plant_moss07.jpg             	1	5	1	plant_moss07.jpg     	plant2   	7	moss      	25	moss07      	256	alive    	1	still	0	natural 	1	n	0	0    	 	0.0	0	289.305276399944	289.405192199978	0.0999158000340685
272513	100	367	stimuli\nonmovArt\bench\nma_bench09.jpg          	1	5	1	nma_bench09.jpg      	nonmovArt	4	bench     	1	bench09     	18	not_alive	0	still	0	artefact	0	n	0	0    	 	0.0	0	289.45530539995497	289.55520449997897	0.0998991000233218
272663	100	368	stimuli\movArt\bus\ma_bus01.jpg                  	1	5	1	ma_bus01.jpg         	movArt   	2	bus       	3	bus01       	30	not_alive	0	moves	1	artefact	0	n	0	0    	 	0.0	0	289.605280900025	289.705245299963	0.0999643999384716
272813	100	369	stimuli\movArt\train\ma_train02.jpg              	1	5	1	ma_train02.jpg       	movArt   	2	train     	34	train02     	341	not_alive	0	moves	1	artefact	0	n	0	0    	 	0.0	0	289.755425199983	289.85518489999197	0.0997597000095993
272963	100	370	stimuli\nonmovNat\sand\nmn_sand10.jpg            	1	5	1	nmn_sand10.jpg       	nonmovNat	5	sand      	31	sand10      	319	not_alive	0	still	0	natural 	1	n	0	0    	 	0.0	0	289.90530380001303	290.005171000026	0.0998672000132501
273113	100	371	stimuli\movArt\bus\ma_bus04.jpg                  	1	5	1	ma_bus04.jpg         	movArt   	2	bus       	3	bus04       	33	not_alive	0	moves	1	artefact	0	n	0	0    	 	0.0	0	290.055271900026	290.15518619993196	0.0999142999062314
273263	100	372	stimuli\animals\horse\animal_horse06.jpg         	1	5	1	animal_horse06.jpg   	animals  	0	horse     	20	horse06     	205	alive    	1	moves	1	natural 	1	n	0	0    	 	0.0	0	290.20528460003	290.305161099997	0.0998764999676495
273413	100	373	stimuli\animals2\pigeon\animal_pigeon10.jpg      	1	5	1	animal_pigeon10.jpg  	animals2 	1	pigeon    	28	pigeon10    	289	alive    	1	moves	1	natural 	1	n	0	0    	 	0.0	0	290.35527629999	290.455174200004	0.0998979000141844
273563	100	374	stimuli\nonmovNat\rock\nmn_rock09.jpg            	1	5	1	nmn_rock09.jpg       	nonmovNat	5	rock      	30	rock09      	308	not_alive	0	still	0	natural 	1	n	0	0    	 	0.0	0	290.505279899924	290.60516909998796	0.0998892000643536
273713	100	375	stimuli\animals2\pigeon\animal_pigeon08.jpg      	1	5	1	animal_pigeon08.jpg  	animals2 	1	pigeon    	28	pigeon08    	287	alive    	1	moves	1	natural 	1	n	0	0    	 	0.0	0	290.655271700001	290.755186400027	0.0999147000256925
273863	100	376	stimuli\nonmovArt\lock\nma_lock09.jpg            	1	5	1	nma_lock09.jpg       	nonmovArt	4	lock      	24	lock09      	248	not_alive	0	still	0	artefact	0	n	0	0    	 	0.0	0	290.80527250003104	290.905168000027	0.0998954999959096
274013	100	377	stimuli\nonmovNat\sand\nmn_sand06.jpg            	1	5	1	nmn_sand06.jpg       	nonmovNat	5	sand      	31	sand06      	315	not_alive	0	still	0	natural 	1	n	0	0    	 	0.0	0	290.955277799978	291.055172399967	0.0998945999890566
274163	100	378	stimuli\movNat\waves\mn_waves07.jpg              	1	5	1	mn_waves07.jpg       	movNat   	3	waves     	38	waves07     	386	not_alive	0	moves	1	natural 	1	n	0	0    	 	0.0	0	291.105255999952	291.205161900027	0.0999059000751003
274313	100	379	stimuli\movArt\helicopter\ma_helicopter06.jpg    	1	5	1	ma_helicopter06.jpg  	movArt   	2	helicopter	19	helicopter06	195	not_alive	0	moves	1	artefact	0	n	0	0    	 	0.0	0	291.255262600025	291.355179599952	0.0999169999267906
274463	100	380	stimuli\animals2\lemur\animal_lemur03.jpg        	1	5	1	animal_lemur03.jpg   	animals2 	1	lemur     	23	lemur03     	232	alive    	1	moves	1	natural 	1	n	1	0    	 	0.0	0	291.405263499939	291.505131899961	0.0998684000223875
274613	100	381	stimuli\plant\grass\plant_grass09.jpg            	1	5	1	plant_grass09.jpg    	plant    	6	grass     	17	grass09     	178	alive    	1	still	0	natural 	1	n	0	0    	 	0.0	0	291.555273099919	291.65521009999804	0.0999370000790804
274763	100	382	stimuli\nonmovArt\bench\nma_bench05.jpg          	1	5	1	nma_bench05.jpg      	nonmovArt	4	bench     	1	bench05     	14	not_alive	0	still	0	artefact	0	n	0	1    	f	0.392009800067171	1	291.705262999982	291.805193200009	0.0999302000273019
274913	100	383	stimuli\animals2\whale\animal_whale10.jpg        	1	5	1	animal_whale10.jpg   	animals2 	1	whale     	39	whale10     	399	alive    	1	moves	1	natural 	1	n	0	0    	 	0.0	0	291.855275399983	291.95517079997796	0.0998953999951481
275063	100	384	stimuli\movNat\river\mn_river06.jpg              	1	5	1	mn_river06.jpg       	movNat   	3	river     	29	river06     	295	not_alive	0	moves	1	natural 	1	n	0	0    	 	0.0	0	292.005265499931	292.105173800024	0.0999083000933751
275213	100	385	stimuli\movArt\car\ma_car09.jpg                  	1	5	1	ma_car09.jpg         	movArt   	2	car       	5	car09       	58	not_alive	0	moves	1	artefact	0	n	0	0    	 	0.0	0	292.155263399938	292.255161399953	0.0998980000149458
275363	100	386	stimuli\nonmovNat\sand\nmn_sand07.jpg            	1	5	1	nmn_sand07.jpg       	nonmovNat	5	sand      	31	sand07      	316	not_alive	0	still	0	natural 	1	n	0	0    	 	0.0	0	292.30526229995303	292.40515559993196	0.0998932999791577
275513	100	387	stimuli\animals\cat\animal_cat02.jpg             	1	5	1	animal_cat02.jpg     	animals  	0	cat       	6	cat02       	61	alive    	1	moves	1	natural 	1	n	1	0    	 	0.0	0	292.455259899958	292.555146300001	0.09988640004303301
275663	100	388	stimuli\nonmovArt\clothespeg\nma_clothespeg09.jpg	1	5	1	nma_clothespeg09.jpg 	nonmovArt	4	clothespeg	8	clothespeg09	88	not_alive	0	still	0	artefact	0	n	0	0    	 	0.0	0	292.605259199976	292.705173800001	0.0999146000249311
275813	100	389	stimuli\animals2\lemur\animal_lemur08.jpg        	1	5	1	animal_lemur08.jpg   	animals2 	1	lemur     	23	lemur08     	237	alive    	1	moves	1	natural 	1	n	0	1    	f	0.39201820001471793	1	292.755263799918	292.855164999957	0.0999012000393122
275963	100	390	stimuli\animals2\bee\animal_bee01.jpg            	1	5	1	animal_bee01.jpg     	animals2 	1	bee       	0	bee01       	0	alive    	1	moves	1	natural 	1	n	0	0    	 	0.0	0	292.905263099936	293.005170300021	0.0999072000849992
276113	100	391	stimuli\plant2\clover\plant_clover09.jpg         	1	5	1	plant_clover09.jpg   	plant2   	7	clover    	9	clover09    	98	alive    	1	still	0	natural 	1	n	0	0    	 	0.0	0	293.055261599948	293.155170299928	0.0999086999800056
276263	100	392	stimuli\animals2\tiger\animal_tiger05.jpg        	1	5	1	animal_tiger05.jpg   	animals2 	1	tiger     	33	tiger05     	334	alive    	1	moves	1	natural 	1	n	0	0    	 	0.0	0	293.205250200001	293.305176099995	0.0999258999945596
276413	100	393	stimuli\movArt\car\ma_car04.jpg                  	1	5	1	ma_car04.jpg         	movArt   	2	car       	5	car04       	53	not_alive	0	moves	1	artefact	0	n	0	0    	 	0.0	0	293.35535730002397	293.455169199966	0.0998118999414146
276563	100	394	stimuli\animals\eagle\animal_eagle10.jpg         	1	5	1	animal_eagle10.jpg   	animals  	0	eagle     	13	eagle10     	139	alive    	1	moves	1	natural 	1	n	0	0    	 	0.0	0	293.505248599919	293.605161699932	0.0999131000135094
276713	100	395	stimuli\animals2\tiger\animal_tiger07.jpg        	1	5	1	animal_tiger07.jpg   	animals2 	1	tiger     	33	tiger07     	336	alive    	1	moves	1	natural 	1	n	0	0    	 	0.0	0	293.65525730000803	293.755171400029	0.0999141000211238
276863	100	396	stimuli\plant2\moss\plant_moss02.jpg             	1	5	1	plant_moss02.jpg     	plant2   	7	moss      	25	moss02      	251	alive    	1	still	0	natural 	1	n	0	0    	 	0.0	0	293.805193200009	293.90518390003103	0.0999907000223174
277013	100	397	stimuli\animals\dog\animal_dog07.jpg             	1	5	1	animal_dog07.jpg     	animals  	0	dog       	11	dog07       	116	alive    	1	moves	1	natural 	1	n	0	0    	 	0.0	0	293.95524749998	294.05515499995096	0.0999074999708682
277163	100	398	stimuli\nonmovNat\cliff\nmn_cliff10.jpg          	1	5	1	nmn_cliff10.jpg      	nonmovNat	5	cliff     	7	cliff10     	79	not_alive	0	still	0	natural 	1	n	0	0    	 	0.0	0	294.105252699926	294.205186499981	0.09993380005471401
277313	100	399	stimuli\nonmovNat\shell\nmn_shell07.jpg          	1	5	1	nmn_shell07.jpg      	nonmovNat	5	shell     	32	shell07     	326	not_alive	0	still	0	natural 	1	n	0	0    	 	0.0	0	294.255268199951	294.35514949995604	0.0998813000041991
285129	100	400	stimuli\plant\tree\plant_tree08.jpg              	1	6	1	plant_tree08.jpg     	plant    	6	tree      	35	tree08      	357	alive    	1	still	0	natural 	1	n	0	0    	 	0.0	0	302.071917499998	302.171746999957	0.0998294999590143
285279	100	401	stimuli\nonmovNat\shell\nmn_shell04.jpg          	1	6	1	nmn_shell04.jpg      	nonmovNat	5	shell     	32	shell04     	323	not_alive	0	still	0	natural 	1	n	0	0    	 	0.0	0	302.221806599991	302.321744499961	0.0999378999695181
285429	100	402	stimuli\nonmovNat\crystal\nmn_crystal05.jpg      	1	6	1	nmn_crystal05.jpg    	nonmovNat	5	crystal   	10	crystal05   	104	not_alive	0	still	0	natural 	1	n	0	0    	 	0.0	0	302.371829399955	302.471739099943	0.0999096999876201
285579	100	403	stimuli\plant2\palmtree\plant_palmtree06.jpg     	1	6	1	plant_palmtree06.jpg 	plant2   	7	palmtree  	27	palmtree06  	275	alive    	1	still	0	natural 	1	n	0	0    	 	0.0	0	302.52184219996	302.621739199967	0.0998970000073313
285729	100	404	stimuli\animals\dolphin\animal_dolphin05.jpg     	1	6	1	animal_dolphin05.jpg 	animals  	0	dolphin   	12	dolphin05   	124	alive    	1	moves	1	natural 	1	n	0	0    	 	0.0	0	302.671828399994	302.771739799995	0.0999114000005647
285879	100	405	stimuli\animals2\whale\animal_whale03.jpg        	1	6	1	animal_whale03.jpg   	animals2 	1	whale     	39	whale03     	392	alive    	1	moves	1	natural 	1	n	0	0    	 	0.0	0	302.821835499955	302.921768100001	0.0999326000455766
286029	100	406	stimuli\plant2\fern\plant_fern02.jpg             	1	6	1	plant_fern02.jpg     	plant2   	7	fern      	14	fern02      	141	alive    	1	still	0	natural 	1	n	0	0    	 	0.0	0	302.971837999998	303.071730299969	0.0998922999715432
286179	100	407	stimuli\movArt\boat\ma_boat10.jpg                	1	6	1	ma_boat10.jpg        	movArt   	2	boat      	2	boat10      	29	not_alive	0	moves	1	artefact	0	n	0	0    	 	0.0	0	303.121840099921	303.221743099974	0.0999030000530183
286329	100	408	stimuli\movArt\train\ma_train03.jpg              	1	6	1	ma_train03.jpg       	movArt   	2	train     	34	train03     	342	not_alive	0	moves	1	artefact	0	n	0	0    	 	0.0	0	303.27182070002897	303.37174490001	0.0999241999816149
286479	100	409	stimuli\movNat\hotspring\mn_hotspring07.jpg      	1	6	1	mn_hotspring07.jpg   	movNat   	3	hotspring 	21	hotspring07 	216	not_alive	0	moves	1	natural 	1	n	0	0    	 	0.0	0	303.421834499924	303.521768499981	0.0999340000562369
286629	100	410	stimuli\animals\dog\animal_dog06.jpg             	1	6	1	animal_dog06.jpg     	animals  	0	dog       	11	dog06       	115	alive    	1	moves	1	natural 	1	n	0	0    	 	0.0	0	303.571832699934	303.671811399981	0.0999787000473588
286779	100	411	stimuli\movArt\car\ma_car03.jpg                  	1	6	1	ma_car03.jpg         	movArt   	2	car       	5	car03       	52	not_alive	0	moves	1	artefact	0	n	0	0    	 	0.0	0	303.721888799919	303.821738000028	0.0998492001090198
286929	100	412	stimuli\nonmovNat\cliff\nmn_cliff05.jpg          	1	6	1	nmn_cliff05.jpg      	nonmovNat	5	cliff     	7	cliff05     	74	not_alive	0	still	0	natural 	1	n	0	0    	 	0.0	0	303.871870200033	303.971725399955	0.0998551999218762
287079	100	413	stimuli\nonmovNat\rock\nmn_rock08.jpg            	1	6	1	nmn_rock08.jpg       	nonmovNat	5	rock      	30	rock08      	307	not_alive	0	still	0	natural 	1	n	0	0    	 	0.0	0	304.021824199939	304.121742899995	0.0999187000561505
287229	100	414	stimuli\plant2\lemontree\plant_lemontree10.jpg   	1	6	1	plant_lemontree10.jpg	plant2   	7	lemontree 	22	lemontree10 	229	alive    	1	still	0	natural 	1	n	0	0    	 	0.0	0	304.171832600026	304.271740800003	0.0999081999761983
287379	100	415	stimuli\plant\flower\plant_flower01.jpg          	1	6	1	plant_flower01.jpg   	plant    	6	flower    	16	flower01    	160	alive    	1	still	0	natural 	1	n	0	0    	 	0.0	0	304.32182019995497	304.420961800031	0.0991416000761091
287528	100	416	stimuli\plant\flower\plant_flower06.jpg          	1	6	1	plant_flower06.jpg   	plant    	6	flower    	16	flower06    	165	alive    	1	still	0	natural 	1	n	0	0    	 	0.0	0	304.47097319993196	304.570961399935	0.0999882000032812
