onset	duration	eventnumber	stimulus_file	blockno	trialno	is_faststream	stim	stim_category	category_number	exemplar	exemplar_number	image_name	image_number	aliveness	aliveness_bin	movement	movement_bin	naturalness	naturalness_bin	response_hand_moves	istarget	response	keypressed	rt	correct	time_stimon	time_stimoff	stimdur
49491	100	0	stimuli\nonmovArt\bench\nma_bench05.jpg          	1	1	1	nma_bench05.jpg      	nonmovArt	4	bench     	1	bench05     	14	not_alive	0	still	0	artefact	0	n	0	0    	 	0.0	0	95.5993042000337	95.6991111000534	0.0998069000197574
49641	100	1	stimuli\animals\dolphin\animal_dolphin10.jpg     	1	1	1	animal_dolphin10.jpg 	animals  	0	dolphin   	12	dolphin10   	129	alive    	1	moves	1	natural 	1	n	0	0    	 	0.0	0	95.7494452000828	95.8491195000242	0.0996742999413982
49791	100	2	stimuli\nonmovArt\lock\nma_lock08.jpg            	1	1	1	nma_lock08.jpg       	nonmovArt	4	lock      	24	lock08      	247	not_alive	0	still	0	artefact	0	n	0	0    	 	0.0	0	95.8992018999998	95.999097699998	0.0998957999981939
49941	100	3	stimuli\movNat\river\mn_river04.jpg              	1	1	1	mn_river04.jpg       	movNat   	3	river     	29	river04     	293	not_alive	0	moves	1	natural 	1	n	0	0    	 	0.0	0	96.0491992000025	96.14910090004558	0.0999017000431194
50091	100	4	stimuli\animals2\whale\animal_whale05.jpg        	1	1	1	animal_whale05.jpg   	animals2 	1	whale     	39	whale05     	394	alive    	1	moves	1	natural 	1	n	0	0    	 	0.0	0	96.19921029999392	96.29909680003759	0.0998865000437945
50241	100	5	stimuli\movArt\helicopter\ma_helicopter03.jpg    	1	1	1	ma_helicopter03.jpg  	movArt   	2	helicopter	19	helicopter03	192	not_alive	0	moves	1	artefact	0	n	0	0    	 	0.0	0	96.34919610002541	96.44909530004949	0.0998992000240832
50391	100	6	stimuli\movNat\waterfall\mn_waterfall02.jpg      	1	1	1	mn_waterfall02.jpg   	movNat   	3	waterfall 	37	waterfall02 	371	not_alive	0	moves	1	natural 	1	n	0	0    	 	0.0	0	96.49919810006399	96.59909899998459	0.0999008999206125
50541	100	7	stimuli\movNat\fire\mn_fire07.jpg                	1	1	1	mn_fire07.jpg        	movNat   	3	fire      	15	fire07      	156	not_alive	0	moves	1	natural 	1	n	0	0    	 	0.0	0	96.649206400034	96.7491028000368	0.0998964000027626
50691	100	8	stimuli\animals\eagle\animal_eagle06.jpg         	1	1	1	animal_eagle06.jpg   	animals  	0	eagle     	13	eagle06     	135	alive    	1	moves	1	natural 	1	n	0	0    	 	0.0	0	96.7995148000773	96.8990934999892	0.0995786999119445
50841	100	9	stimuli\nonmovArt\clothespeg\nma_clothespeg02.jpg	1	1	1	nma_clothespeg02.jpg 	nonmovArt	4	clothespeg	8	clothespeg02	81	not_alive	0	still	0	artefact	0	n	0	0    	 	0.0	0	96.9491901000729	97.04909139999648	0.0999012999236583
50991	100	10	stimuli\movArt\bus\ma_bus05.jpg                  	1	1	1	ma_bus05.jpg         	movArt   	2	bus       	3	bus05       	34	not_alive	0	moves	1	artefact	0	n	0	0    	 	0.0	0	97.0991873000748	97.19918170000891	0.0999943999340757
51141	100	11	stimuli\plant\grass\plant_grass03.jpg            	1	1	1	plant_grass03.jpg    	plant    	6	grass     	17	grass03     	172	alive    	1	still	0	natural 	1	n	0	0    	 	0.0	0	97.24936230003371	97.3491788000101	0.0998164999764412
51291	100	12	stimuli\movNat\river\mn_river07.jpg              	1	1	1	mn_river07.jpg       	movNat   	3	river     	29	river07     	296	not_alive	0	moves	1	natural 	1	n	0	0    	 	0.0	0	97.3991819000803	97.4990989000071	0.0999169999267906
51441	100	13	stimuli\plant\flower\plant_flower09.jpg          	1	1	1	plant_flower09.jpg   	plant    	6	flower    	16	flower09    	168	alive    	1	still	0	natural 	1	n	0	0    	 	0.0	0	97.5491984999972	97.6491057000822	0.0999072000849992
51591	100	14	stimuli\animals2\pigeon\animal_pigeon07.jpg      	1	1	1	animal_pigeon07.jpg  	animals2 	1	pigeon    	28	pigeon07    	286	alive    	1	moves	1	natural 	1	n	0	0    	 	0.0	0	97.69918450003021	97.7990919000004	0.0999073999701067
51741	100	15	stimuli\plant2\lemontree\plant_lemontree05.jpg   	1	1	1	plant_lemontree05.jpg	plant2   	7	lemontree 	22	lemontree05 	224	alive    	1	still	0	natural 	1	n	0	0    	 	0.0	0	97.84918360004671	97.94909500004721	0.0999114000005647
51891	100	16	stimuli\nonmovNat\cliff\nmn_cliff01.jpg          	1	1	1	nmn_cliff01.jpg      	nonmovNat	5	cliff     	7	cliff01     	70	not_alive	0	still	0	natural 	1	n	0	0    	 	0.0	0	97.99917920003641	98.0990827999776	0.0999035999411717
52041	100	17	stimuli\plant2\moss\plant_moss07.jpg             	1	1	1	plant_moss07.jpg     	plant2   	7	moss      	25	moss07      	256	alive    	1	still	0	natural 	1	n	0	0    	 	0.0	0	98.1491798000643	98.2490694000153	0.0998895999509841
52191	100	18	stimuli\plant\cactus\plant_cactus08.jpg          	1	1	1	plant_cactus08.jpg   	plant    	6	cactus    	4	cactus08    	47	alive    	1	still	0	natural 	1	n	0	0    	 	0.0	0	98.29918600001841	98.39907789998692	0.0998918999684974
52341	100	19	stimuli\animals2\bee\animal_bee07.jpg            	1	1	1	animal_bee07.jpg     	animals2 	1	bee       	0	bee07       	6	alive    	1	moves	1	natural 	1	n	0	0    	 	0.0	0	98.44918120000509	98.54908889997749	0.0999076999723911
52491	100	20	stimuli\plant\cactus\plant_cactus01.jpg          	1	1	1	plant_cactus01.jpg   	plant    	6	cactus    	4	cactus01    	40	alive    	1	still	0	natural 	1	n	1	0    	 	0.0	0	98.59918700007259	98.69907600001899	0.0998889999464154
52641	100	21	stimuli\animals\dog\animal_dog04.jpg             	1	1	1	animal_dog04.jpg     	animals  	0	dog       	11	dog04       	113	alive    	1	moves	1	natural 	1	n	0	0    	 	0.0	0	98.7492171999766	98.8490686999867	0.0998515000101178
52791	100	22	stimuli\plant2\lemontree\plant_lemontree04.jpg   	1	1	1	plant_lemontree04.jpg	plant2   	7	lemontree 	22	lemontree04 	223	alive    	1	still	0	natural 	1	n	0	1    	f	0.306829200009815	1	98.89918559999201	98.99915390007659	0.0999683000845834
52941	100	23	stimuli\nonmovArt\clothespeg\nma_clothespeg04.jpg	1	1	1	nma_clothespeg04.jpg 	nonmovArt	4	clothespeg	8	clothespeg04	83	not_alive	0	still	0	artefact	0	n	0	0    	 	0.0	0	99.0492668000516	99.1491079999832	0.0998411999316886
53091	100	24	stimuli\nonmovArt\headphones\nma_headphones10.jpg	1	1	1	nma_headphones10.jpg 	nonmovArt	4	headphones	18	headphones10	189	not_alive	0	still	0	artefact	0	n	0	0    	 	0.0	0	99.1991623999784	99.2990663000382	0.0999039000598713
53241	100	25	stimuli\nonmovNat\sand\nmn_sand06.jpg            	1	1	1	nmn_sand06.jpg       	nonmovNat	5	sand      	31	sand06      	315	not_alive	0	still	0	natural 	1	n	0	0    	 	0.0	0	99.34917320008391	99.44906880008058	0.09989559999667098
53391	100	26	stimuli\animals2\bee\animal_bee10.jpg            	1	1	1	animal_bee10.jpg     	animals2 	1	bee       	0	bee10       	9	alive    	1	moves	1	natural 	1	n	0	0    	 	0.0	0	99.49917470000221	99.5990636000643	0.0998889000620693
53541	100	27	stimuli\plant2\clover\plant_clover01.jpg         	1	1	1	plant_clover01.jpg   	plant2   	7	clover    	9	clover01    	90	alive    	1	still	0	natural 	1	n	0	0    	 	0.0	0	99.64917350001629	99.74908209999559	0.0999085999792441
53691	100	28	stimuli\animals2\pigeon\animal_pigeon08.jpg      	1	1	1	animal_pigeon08.jpg  	animals2 	1	pigeon    	28	pigeon08    	287	alive    	1	moves	1	natural 	1	n	0	0    	 	0.0	0	99.7991707000183	99.8990617999807	0.0998910999624058
53841	100	29	stimuli\plant2\lemontree\plant_lemontree10.jpg   	1	1	1	plant_lemontree10.jpg	plant2   	7	lemontree 	22	lemontree10 	229	alive    	1	still	0	natural 	1	n	0	0    	 	0.0	0	99.949176400085	100.04907790000999	0.0999014999251812
53991	100	30	stimuli\plant2\palmtree\plant_palmtree06.jpg     	1	1	1	plant_palmtree06.jpg 	plant2   	7	palmtree  	27	palmtree06  	275	alive    	1	still	0	natural 	1	n	0	0    	 	0.0	0	100.099159099977	100.199074400007	0.0999153000302612
54141	100	31	stimuli\plant2\fern\plant_fern09.jpg             	1	1	1	plant_fern09.jpg     	plant2   	7	fern      	14	fern09      	148	alive    	1	still	0	natural 	1	n	0	0    	 	0.0	0	100.24916320003099	100.349078500061	0.0999153000302612
54291	100	32	stimuli\animals2\whale\animal_whale06.jpg        	1	1	1	animal_whale06.jpg   	animals2 	1	whale     	39	whale06     	395	alive    	1	moves	1	natural 	1	n	0	0    	 	0.0	0	100.399162500049	100.49905790004401	0.0998953999951481
54441	100	33	stimuli\nonmovArt\lock\nma_lock05.jpg            	1	1	1	nma_lock05.jpg       	nonmovArt	4	lock      	24	lock05      	244	not_alive	0	still	0	artefact	0	n	0	0    	 	0.0	0	100.54915830003999	100.648293500068	0.0991352000273764
54590	100	34	stimuli\nonmovNat\rock\nmn_rock07.jpg            	1	1	1	nmn_rock07.jpg       	nonmovNat	5	rock      	30	rock07      	306	not_alive	0	still	0	natural 	1	n	0	0    	 	0.0	0	100.698315300047	100.798295699991	0.0999803999438882
54740	100	35	stimuli\nonmovNat\rock\nmn_rock03.jpg            	1	1	1	nmn_rock03.jpg       	nonmovNat	5	rock      	30	rock03      	302	not_alive	0	still	0	natural 	1	n	0	0    	 	0.0	0	100.848307200009	100.948294100002	0.0999868999933824
54890	100	36	stimuli\plant2\fern\plant_fern09.jpg             	1	1	1	plant_fern09.jpg     	plant2   	7	fern      	14	fern09      	148	alive    	1	still	0	natural 	1	n	0	0    	 	0.0	0	100.998302599997	101.098290599999	0.0999880000017583
55040	100	37	stimuli\animals2\tiger\animal_tiger01.jpg        	1	1	1	animal_tiger01.jpg   	animals2 	1	tiger     	33	tiger01     	330	alive    	1	moves	1	natural 	1	n	0	0    	 	0.0	0	101.148303000024	101.248289700015	0.0999866999918595
55190	100	38	stimuli\animals\cat\animal_cat02.jpg             	1	1	1	animal_cat02.jpg     	animals  	0	cat       	6	cat02       	61	alive    	1	moves	1	natural 	1	n	0	0    	 	0.0	0	101.298302700045	101.398292600061	0.0999899000162258
55340	100	39	stimuli\plant2\palmtree\plant_palmtree10.jpg     	1	1	1	plant_palmtree10.jpg 	plant2   	7	palmtree  	27	palmtree10  	279	alive    	1	still	0	natural 	1	n	0	0    	 	0.0	0	101.448300100048	101.548288600054	0.0999885000055655
55490	100	40	stimuli\nonmovNat\shell\nmn_shell09.jpg          	1	1	1	nmn_shell09.jpg      	nonmovNat	5	shell     	32	shell09     	328	not_alive	0	still	0	natural 	1	n	0	0    	 	0.0	0	101.59829760005199	101.698288200074	0.099990600021556
55640	100	41	stimuli\plant2\fern\plant_fern05.jpg             	1	1	1	plant_fern05.jpg     	plant2   	7	fern      	14	fern05      	144	alive    	1	still	0	natural 	1	n	0	0    	 	0.0	0	101.748299200088	101.84828730009	0.0999881000025198
55790	100	42	stimuli\nonmovArt\headphones\nma_headphones10.jpg	1	1	1	nma_headphones10.jpg 	nonmovArt	4	headphones	18	headphones10	189	not_alive	0	still	0	artefact	0	n	0	0    	 	0.0	0	101.89829620008801	101.99829160003	0.0999953999416902
55940	100	43	stimuli\plant2\clover\plant_clover10.jpg         	1	1	1	plant_clover10.jpg   	plant2   	7	clover    	9	clover10    	99	alive    	1	still	0	natural 	1	n	0	0    	 	0.0	0	102.048294399981	102.14828520000401	0.0999908000230789
56090	100	44	stimuli\nonmovNat\shell\nmn_shell06.jpg          	1	1	1	nmn_shell06.jpg      	nonmovNat	5	shell     	32	shell06     	325	not_alive	0	still	0	natural 	1	n	0	0    	 	0.0	0	102.198295200011	102.29828149999999	0.0999862999888137
56240	100	45	stimuli\movNat\waves\mn_waves09.jpg              	1	1	1	mn_waves09.jpg       	movNat   	3	waves     	38	waves09     	388	not_alive	0	moves	1	natural 	1	n	0	0    	 	0.0	0	102.34829340001998	102.448281300021	0.0999879000009968
56390	100	46	stimuli\plant\vine\plant_vine02.jpg              	1	1	1	plant_vine02.jpg     	plant    	6	vine      	36	vine02      	361	alive    	1	still	0	natural 	1	n	0	0    	 	0.0	0	102.49830189999201	102.59828130004499	0.09997940005268902
56540	100	47	stimuli\animals2\lemur\animal_lemur08.jpg        	1	1	1	animal_lemur08.jpg   	animals2 	1	lemur     	23	lemur08     	237	alive    	1	moves	1	natural 	1	n	1	0    	 	0.0	0	102.648290500045	102.74828050006201	0.0999900000169873
56690	100	48	stimuli\movNat\waterfall\mn_waterfall01.jpg      	1	1	1	mn_waterfall01.jpg   	movNat   	3	waterfall 	37	waterfall01 	370	not_alive	0	moves	1	natural 	1	n	0	1    	f	0.25571159995160997	1	102.79828910005699	102.898278000066	0.0999889000086113
56840	100	49	stimuli\plant2\palmtree\plant_palmtree02.jpg     	1	1	1	plant_palmtree02.jpg 	plant2   	7	palmtree  	27	palmtree02  	271	alive    	1	still	0	natural 	1	n	0	0    	 	0.0	0	102.948288100073	103.04827889998	0.0999907999066636
56990	100	50	stimuli\movNat\hotspring\mn_hotspring08.jpg      	1	1	1	mn_hotspring08.jpg   	movNat   	3	hotspring 	21	hotspring08 	217	not_alive	0	moves	1	natural 	1	n	0	0    	 	0.0	0	103.098287499975	103.198275199975	0.099987699999474
57140	100	51	stimuli\animals\horse\animal_horse01.jpg         	1	1	1	animal_horse01.jpg   	animals  	0	horse     	20	horse01     	200	alive    	1	moves	1	natural 	1	n	0	0    	 	0.0	0	103.24828599998699	103.348275700002	0.0999897000147029
57290	100	52	stimuli\nonmovNat\shell\nmn_shell10.jpg          	1	1	1	nmn_shell10.jpg      	nonmovNat	5	shell     	32	shell10     	329	not_alive	0	still	0	natural 	1	n	0	0    	 	0.0	0	103.398283099988	103.49827290000401	0.0999898000154644
57440	100	53	stimuli\animals2\whale\animal_whale05.jpg        	1	1	1	animal_whale05.jpg   	animals2 	1	whale     	39	whale05     	394	alive    	1	moves	1	natural 	1	n	1	0    	 	0.0	0	103.54828540002899	103.64827070000999	0.0999852999811992
57590	100	54	stimuli\plant\vine\plant_vine07.jpg              	1	1	1	plant_vine07.jpg     	plant    	6	vine      	36	vine07      	366	alive    	1	still	0	natural 	1	n	0	0    	 	0.0	0	103.698282000027	103.798276900081	0.0999949000542983
57740	100	55	stimuli\animals2\lemur\animal_lemur07.jpg        	1	1	1	animal_lemur07.jpg   	animals2 	1	lemur     	23	lemur07     	236	alive    	1	moves	1	natural 	1	n	0	0    	 	0.0	0	103.848285500077	103.948268300039	0.0999827999621629
57890	100	56	stimuli\animals2\lemur\animal_lemur09.jpg        	1	1	1	animal_lemur09.jpg   	animals2 	1	lemur     	23	lemur09     	238	alive    	1	moves	1	natural 	1	n	0	1    	f	0.541994699975476	1	103.998278500047	104.098269900074	0.0999914000276476
58040	100	57	stimuli\animals\horse\animal_horse09.jpg         	1	1	1	animal_horse09.jpg   	animals  	0	horse     	20	horse09     	208	alive    	1	moves	1	natural 	1	n	0	0    	 	0.0	0	104.148278800072	104.248268200085	0.0999894000124186
58190	100	58	stimuli\nonmovNat\cliff\nmn_cliff07.jpg          	1	1	1	nmn_cliff07.jpg      	nonmovNat	5	cliff     	7	cliff07     	76	not_alive	0	still	0	natural 	1	n	0	0    	 	0.0	0	104.298293300089	104.39826879999599	0.0999754999065771
58340	100	59	stimuli\movArt\bus\ma_bus06.jpg                  	1	1	1	ma_bus06.jpg         	movArt   	2	bus       	3	bus06       	35	not_alive	0	moves	1	artefact	0	n	0	0    	 	0.0	0	104.448276399984	104.548266900005	0.0999905000207945
58490	100	60	stimuli\movNat\fire\mn_fire09.jpg                	1	1	1	mn_fire09.jpg        	movNat   	3	fire      	15	fire09      	158	not_alive	0	moves	1	natural 	1	n	0	0    	 	0.0	0	104.59827810001998	104.698262899998	0.0999847999773919
58640	100	61	stimuli\plant\vine\plant_vine01.jpg              	1	1	1	plant_vine01.jpg     	plant    	6	vine      	36	vine01      	360	alive    	1	still	0	natural 	1	n	0	0    	 	0.0	0	104.748275500024	104.848264700035	0.0999892000108957
58790	100	62	stimuli\nonmovArt\headphones\nma_headphones05.jpg	1	1	1	nma_headphones05.jpg 	nonmovArt	4	headphones	18	headphones05	184	not_alive	0	still	0	artefact	0	n	0	0    	 	0.0	0	104.898272100021	104.998261200031	0.0999891000101342
58940	100	63	stimuli\movNat\waves\mn_waves05.jpg              	1	1	1	mn_waves05.jpg       	movNat   	3	waves     	38	waves05     	384	not_alive	0	moves	1	natural 	1	n	0	0    	 	0.0	0	105.04826960002501	105.148259600042	0.0999900000169873
59090	100	64	stimuli\nonmovArt\bench\nma_bench10.jpg          	1	1	1	nma_bench10.jpg      	nonmovArt	4	bench     	1	bench10     	19	not_alive	0	still	0	artefact	0	n	0	0    	 	0.0	0	105.19827000005199	105.298258700059	0.0999887000070884
59240	100	65	stimuli\plant\grass\plant_grass06.jpg            	1	1	1	plant_grass06.jpg    	plant    	6	grass     	17	grass06     	175	alive    	1	still	0	natural 	1	n	0	0    	 	0.0	0	105.34826930007	105.448259000084	0.0999897000147029
59390	100	66	stimuli\plant\flower\plant_flower05.jpg          	1	1	1	plant_flower05.jpg   	plant    	6	flower    	16	flower05    	164	alive    	1	still	0	natural 	1	n	0	0    	 	0.0	0	105.49826760008001	105.598256500089	0.0999889000086113
59540	100	67	stimuli\animals\dolphin\animal_dolphin05.jpg     	1	1	1	animal_dolphin05.jpg 	animals  	0	dolphin   	12	dolphin05   	124	alive    	1	moves	1	natural 	1	n	0	0    	 	0.0	0	105.64826799999001	105.748258500011	0.0999905000207945
59690	100	68	stimuli\nonmovArt\bench\nma_bench01.jpg          	1	1	1	nma_bench01.jpg      	nonmovArt	4	bench     	1	bench01     	10	not_alive	0	still	0	artefact	0	n	0	0    	 	0.0	0	105.79826449998698	105.898256000015	0.099991500028409
59840	100	69	stimuli\plant\tree\plant_tree09.jpg              	1	1	1	plant_tree09.jpg     	plant    	6	tree      	35	tree09      	358	alive    	1	still	0	natural 	1	n	0	0    	 	0.0	0	105.948264200008	106.048260800075	0.0999966000672429
59990	100	70	stimuli\nonmovArt\lock\nma_lock03.jpg            	1	1	1	nma_lock03.jpg       	nonmovArt	4	lock      	24	lock03      	242	not_alive	0	still	0	artefact	0	n	0	0    	 	0.0	0	106.098286300083	106.198253800045	0.0999674999620765
60140	100	71	stimuli\plant\tree\plant_tree05.jpg              	1	1	1	plant_tree05.jpg     	plant    	6	tree      	35	tree05      	354	alive    	1	still	0	natural 	1	n	0	0    	 	0.0	0	106.248264100053	106.348253200063	0.0999891000101342
60290	100	72	stimuli\animals\eagle\animal_eagle10.jpg         	1	1	1	animal_eagle10.jpg   	animals  	0	eagle     	13	eagle10     	139	alive    	1	moves	1	natural 	1	n	0	0    	 	0.0	0	106.398258700036	106.498249400058	0.0999907000223174
60440	100	73	stimuli\nonmovNat\crystal\nmn_crystal09.jpg      	1	1	1	nmn_crystal09.jpg    	nonmovNat	5	crystal   	10	crystal09   	108	not_alive	0	still	0	natural 	1	n	0	0    	 	0.0	0	106.54825960006599	106.648248800077	0.0999892000108957
60590	100	74	stimuli\movArt\helicopter\ma_helicopter02.jpg    	1	1	1	ma_helicopter02.jpg  	movArt   	2	helicopter	19	helicopter02	191	not_alive	0	moves	1	artefact	0	n	0	0    	 	0.0	0	106.69825840008001	106.798247200088	0.0999888000078499
60740	100	75	stimuli\nonmovArt\mug\nma_mug05.jpg              	1	1	1	nma_mug05.jpg        	nonmovArt	4	mug       	26	mug05       	264	not_alive	0	still	0	artefact	0	n	0	0    	 	0.0	0	106.848258099984	106.948246199987	0.0999881000025198
60890	100	76	stimuli\plant\tree\plant_tree03.jpg              	1	1	1	plant_tree03.jpg     	plant    	6	tree      	35	tree03      	352	alive    	1	still	0	natural 	1	n	0	0    	 	0.0	0	106.99825449998	107.09824479999999	0.0999903000192716
61040	100	77	stimuli\movNat\hotspring\mn_hotspring07.jpg      	1	1	1	mn_hotspring07.jpg   	movNat   	3	hotspring 	21	hotspring07 	216	not_alive	0	moves	1	natural 	1	n	0	0    	 	0.0	0	107.148254900007	107.24824630003401	0.0999914000276476
61190	100	78	stimuli\movArt\bus\ma_bus05.jpg                  	1	1	1	ma_bus05.jpg         	movArt   	2	bus       	3	bus05       	34	not_alive	0	moves	1	artefact	0	n	0	0    	 	0.0	0	107.298254600028	107.398250899976	0.0999962999485433
61340	100	79	stimuli\nonmovNat\sand\nmn_sand01.jpg            	1	1	1	nmn_sand01.jpg       	nonmovNat	5	sand      	31	sand01      	310	not_alive	0	still	0	natural 	1	n	0	0    	 	0.0	0	107.448250700021	107.54824080003901	0.0999901000177487
65156	100	80	stimuli\plant2\clover\plant_clover08.jpg         	1	2	1	plant_clover08.jpg   	plant2   	7	clover    	9	clover08    	97	alive    	1	still	0	natural 	1	n	0	0    	 	0.0	0	111.264894600026	111.36486750003	0.0999729000031948
65306	100	81	stimuli\movArt\boat\ma_boat06.jpg                	1	2	1	ma_boat06.jpg        	movArt   	2	boat      	2	boat06      	25	not_alive	0	moves	1	artefact	0	n	0	0    	 	0.0	0	111.414888800005	111.514874899993	0.0999860999872908
65456	100	82	stimuli\animals2\bee\animal_bee08.jpg            	1	2	1	animal_bee08.jpg     	animals2 	1	bee       	0	bee08       	7	alive    	1	moves	1	natural 	1	n	0	0    	 	0.0	0	111.564885900007	111.664874900016	0.0999890000093728
65606	100	83	stimuli\movNat\waterfall\mn_waterfall01.jpg      	1	2	1	mn_waterfall01.jpg   	movNat   	3	waterfall 	37	waterfall01 	370	not_alive	0	moves	1	natural 	1	n	0	0    	 	0.0	0	111.71488400001499	111.814873500029	0.09998950001317998
65756	100	84	stimuli\movArt\train\ma_train05.jpg              	1	2	1	ma_train05.jpg       	movArt   	2	train     	34	train05     	344	not_alive	0	moves	1	artefact	0	n	0	0    	 	0.0	0	111.864887100062	111.96487010002599	0.0999829999636858
65906	100	85	stimuli\animals\dog\animal_dog04.jpg             	1	2	1	animal_dog04.jpg     	animals  	0	dog       	11	dog04       	113	alive    	1	moves	1	natural 	1	n	0	0    	 	0.0	0	112.01488030003401	112.114870800055	0.0999905000207945
66056	100	86	stimuli\nonmovNat\sand\nmn_sand03.jpg            	1	2	1	nmn_sand03.jpg       	nonmovNat	5	sand      	31	sand03      	312	not_alive	0	still	0	natural 	1	n	0	0    	 	0.0	0	112.164883800084	112.264870700077	0.0999868999933824
66206	100	87	stimuli\animals2\tiger\animal_tiger04.jpg        	1	2	1	animal_tiger04.jpg   	animals2 	1	tiger     	33	tiger04     	333	alive    	1	moves	1	natural 	1	n	0	0    	 	0.0	0	112.314878700068	112.41486810008101	0.0999894000124186
66356	100	88	stimuli\movNat\river\mn_river06.jpg              	1	2	1	mn_river06.jpg       	movNat   	3	river     	29	river06     	295	not_alive	0	moves	1	natural 	1	n	0	0    	 	0.0	0	112.46487850009	112.565620600013	0.10074209992308199
66507	100	89	stimuli\movArt\car\ma_car10.jpg                  	1	2	1	ma_car10.jpg         	movArt   	2	car       	5	car10       	59	not_alive	0	moves	1	artefact	0	n	0	0    	 	0.0	0	112.615731200087	112.71563240001001	0.0999011999228969
66657	100	90	stimuli\animals\eagle\animal_eagle08.jpg         	1	2	1	animal_eagle08.jpg   	animals  	0	eagle     	13	eagle08     	137	alive    	1	moves	1	natural 	1	n	0	0    	 	0.0	0	112.765731299995	112.865704600001	0.0999733000062406
66807	100	91	stimuli\nonmovArt\clothespeg\nma_clothespeg09.jpg	1	2	1	nma_clothespeg09.jpg 	nonmovArt	4	clothespeg	8	clothespeg09	88	not_alive	0	still	0	artefact	0	n	0	0    	 	0.0	0	112.915762000019	113.01562910003099	0.0998671000124886
66957	100	92	stimuli\movArt\train\ma_train08.jpg              	1	2	1	ma_train08.jpg       	movArt   	2	train     	34	train08     	347	not_alive	0	moves	1	artefact	0	n	0	0    	 	0.0	0	113.065740699996	113.16563389997499	0.0998931999783963
67107	100	93	stimuli\plant2\moss\plant_moss07.jpg             	1	2	1	plant_moss07.jpg     	plant2   	7	moss      	25	moss07      	256	alive    	1	still	0	natural 	1	n	0	0    	 	0.0	0	113.215954700019	113.31562370003701	0.0996690000174567
67257	100	94	stimuli\movArt\boat\ma_boat02.jpg                	1	2	1	ma_boat02.jpg        	movArt   	2	boat      	2	boat02      	21	not_alive	0	moves	1	artefact	0	n	0	0    	 	0.0	0	113.365727400058	113.465620400035	0.0998929999768734
67407	100	95	stimuli\animals2\tiger\animal_tiger07.jpg        	1	2	1	animal_tiger07.jpg   	animals2 	1	tiger     	33	tiger07     	336	alive    	1	moves	1	natural 	1	n	0	0    	 	0.0	0	113.51572120003401	113.615622700076	0.0999015000415966
67557	100	96	stimuli\nonmovNat\crystal\nmn_crystal05.jpg      	1	2	1	nmn_crystal05.jpg    	nonmovNat	5	crystal   	10	crystal05   	104	not_alive	0	still	0	natural 	1	n	0	0    	 	0.0	0	113.66571780003099	113.765618600068	0.0999008000362664
67707	100	97	stimuli\nonmovNat\cliff\nmn_cliff08.jpg          	1	2	1	nmn_cliff08.jpg      	nonmovNat	5	cliff     	7	cliff08     	77	not_alive	0	still	0	natural 	1	n	0	0    	 	0.0	0	113.815715800039	113.915624100016	0.0999082999769598
67857	100	98	stimuli\nonmovArt\mug\nma_mug07.jpg              	1	2	1	nma_mug07.jpg        	nonmovArt	4	mug       	26	mug07       	266	not_alive	0	still	0	artefact	0	n	0	0    	 	0.0	0	113.96570589998699	114.065613100072	0.0999072000849992
68007	100	99	stimuli\animals\dolphin\animal_dolphin06.jpg     	1	2	1	animal_dolphin06.jpg 	animals  	0	dolphin   	12	dolphin06   	125	alive    	1	moves	1	natural 	1	n	0	0    	 	0.0	0	114.11571809998699	114.21563009999201	0.0999120000051334
68157	100	100	stimuli\movArt\car\ma_car03.jpg                  	1	2	1	ma_car03.jpg         	movArt   	2	car       	5	car03       	52	not_alive	0	moves	1	artefact	0	n	0	0    	 	0.0	0	114.265721600037	114.365626899991	0.0999052999541163
68307	100	101	stimuli\movArt\train\ma_train08.jpg              	1	2	1	ma_train08.jpg       	movArt   	2	train     	34	train08     	347	not_alive	0	moves	1	artefact	0	n	0	0    	 	0.0	0	114.415706600063	114.51563070004299	0.0999240999808535
68457	100	102	stimuli\movArt\car\ma_car04.jpg                  	1	2	1	ma_car04.jpg         	movArt   	2	car       	5	car04       	53	not_alive	0	moves	1	artefact	0	n	0	0    	 	0.0	0	114.565698300023	114.665636999998	0.0999386999756097
68607	100	103	stimuli\plant\flower\plant_flower03.jpg          	1	2	1	plant_flower03.jpg   	plant    	6	flower    	16	flower03    	162	alive    	1	still	0	natural 	1	n	0	0    	 	0.0	0	114.715727300034	114.815609300043	0.0998820000095292
68757	100	104	stimuli\movNat\fire\mn_fire09.jpg                	1	2	1	mn_fire09.jpg        	movNat   	3	fire      	15	fire09      	158	not_alive	0	moves	1	natural 	1	n	0	0    	 	0.0	0	114.86578590003799	114.965737199993	0.099951299955137
68907	100	105	stimuli\animals\cat\animal_cat10.jpg             	1	2	1	animal_cat10.jpg     	animals  	0	cat       	6	cat10       	69	alive    	1	moves	1	natural 	1	n	0	0    	 	0.0	0	115.01581760007	115.115617300035	0.0997996999649331
69057	100	106	stimuli\nonmovNat\rock\nmn_rock04.jpg            	1	2	1	nmn_rock04.jpg       	nonmovNat	5	rock      	30	rock04      	303	not_alive	0	still	0	natural 	1	n	0	0    	 	0.0	0	115.165709800087	115.26563829998501	0.0999284998979419
69207	100	107	stimuli\animals\cat\animal_cat10.jpg             	1	2	1	animal_cat10.jpg     	animals  	0	cat       	6	cat10       	69	alive    	1	moves	1	natural 	1	n	0	0    	 	0.0	0	115.315709099988	115.41560250008499	0.0998934000963345
69357	100	108	stimuli\movNat\waves\mn_waves06.jpg              	1	2	1	mn_waves06.jpg       	movNat   	3	waves     	38	waves06     	385	not_alive	0	moves	1	natural 	1	n	0	0    	 	0.0	0	115.46570320008301	115.565614400082	0.0999111999990418
69507	100	109	stimuli\animals\horse\animal_horse06.jpg         	1	2	1	animal_horse06.jpg   	animals  	0	horse     	20	horse06     	205	alive    	1	moves	1	natural 	1	n	0	0    	 	0.0	0	115.61570279998699	115.715615199995	0.0999124000081792
69657	100	110	stimuli\movArt\boat\ma_boat07.jpg                	1	2	1	ma_boat07.jpg        	movArt   	2	boat      	2	boat07      	26	not_alive	0	moves	1	artefact	0	n	0	0    	 	0.0	0	115.765702100005	115.865630400018	0.0999283000128343
69807	100	111	stimuli\animals2\pigeon\animal_pigeon05.jpg      	1	2	1	animal_pigeon05.jpg  	animals2 	1	pigeon    	28	pigeon05    	284	alive    	1	moves	1	natural 	1	n	0	0    	 	0.0	0	115.915702900034	116.01561240001999	0.0999094999860972
69957	100	112	stimuli\nonmovNat\crystal\nmn_crystal03.jpg      	1	2	1	nmn_crystal03.jpg    	nonmovNat	5	crystal   	10	crystal03   	102	not_alive	0	still	0	natural 	1	n	0	0    	 	0.0	0	116.065680500004	116.16561200004101	0.0999315000372007
70107	100	113	stimuli\animals\dog\animal_dog02.jpg             	1	2	1	animal_dog02.jpg     	animals  	0	dog       	11	dog02       	111	alive    	1	moves	1	natural 	1	n	0	0    	 	0.0	0	116.21571380004801	116.315619200002	0.0999053999548778
70257	100	114	stimuli\movNat\hotspring\mn_hotspring04.jpg      	1	2	1	mn_hotspring04.jpg   	movNat   	3	hotspring 	21	hotspring04 	213	not_alive	0	moves	1	natural 	1	n	0	0    	 	0.0	0	116.365687999991	116.465598299983	0.0999102999921888
70407	100	115	stimuli\plant\grass\plant_grass09.jpg            	1	2	1	plant_grass09.jpg    	plant    	6	grass     	17	grass09     	178	alive    	1	still	0	natural 	1	n	0	0    	 	0.0	0	116.51571840001301	116.615600000019	0.0998816000064835
70557	100	116	stimuli\plant\cactus\plant_cactus08.jpg          	1	2	1	plant_cactus08.jpg   	plant    	6	cactus    	4	cactus08    	47	alive    	1	still	0	natural 	1	n	0	0    	 	0.0	0	116.665739400079	116.765753800049	0.10001439996995
70707	100	117	stimuli\nonmovArt\mug\nma_mug01.jpg              	1	2	1	nma_mug01.jpg        	nonmovArt	4	mug       	26	mug01       	260	not_alive	0	still	0	artefact	0	n	0	0    	 	0.0	0	116.81575090007401	116.91559900005801	0.0998480999842286
70857	100	118	stimuli\plant2\moss\plant_moss04.jpg             	1	2	1	plant_moss04.jpg     	plant2   	7	moss      	25	moss04      	253	alive    	1	still	0	natural 	1	n	0	0    	 	0.0	0	116.965695000021	117.065597200068	0.0999022000469267
71007	100	119	stimuli\movArt\helicopter\ma_helicopter07.jpg    	1	2	1	ma_helicopter07.jpg  	movArt   	2	helicopter	19	helicopter07	196	not_alive	0	moves	1	artefact	0	n	0	0    	 	0.0	0	117.11566660006099	117.21558399998999	0.0999173999298364
71157	100	120	stimuli\movNat\waves\mn_waves07.jpg              	1	2	1	mn_waves07.jpg       	movNat   	3	waves     	38	waves07     	386	not_alive	0	moves	1	natural 	1	n	0	0    	 	0.0	0	117.26569400006001	117.36560270004	0.0999086999800056
71307	100	121	stimuli\movNat\river\mn_river03.jpg              	1	2	1	mn_river03.jpg       	movNat   	3	river     	29	river03     	292	not_alive	0	moves	1	natural 	1	n	0	0    	 	0.0	0	117.41568440001001	117.515597800026	0.0999134000157937
71457	100	122	stimuli\animals\dolphin\animal_dolphin06.jpg     	1	2	1	animal_dolphin06.jpg 	animals  	0	dolphin   	12	dolphin06   	125	alive    	1	moves	1	natural 	1	n	0	0    	 	0.0	0	117.565685500042	117.66557100007799	0.09988550003618
71607	100	123	stimuli\movArt\train\ma_train02.jpg              	1	2	1	ma_train02.jpg       	movArt   	2	train     	34	train02     	341	not_alive	0	moves	1	artefact	0	n	0	0    	 	0.0	0	117.715692800004	117.815591500024	0.09989870002027601
71757	100	124	stimuli\animals\dolphin\animal_dolphin03.jpg     	1	2	1	animal_dolphin03.jpg 	animals  	0	dolphin   	12	dolphin03   	122	alive    	1	moves	1	natural 	1	n	0	0    	 	0.0	0	117.8659491	117.965589800035	0.0996407000347972
71907	100	125	stimuli\nonmovNat\sand\nmn_sand10.jpg            	1	2	1	nmn_sand10.jpg       	nonmovNat	5	sand      	31	sand10      	319	not_alive	0	still	0	natural 	1	n	0	1    	f	0.0	0	118.01581350003799	118.11560870008499	0.0997952000470832
72057	100	126	stimuli\movArt\train\ma_train10.jpg              	1	2	1	ma_train10.jpg       	movArt   	2	train     	34	train10     	349	not_alive	0	moves	1	artefact	0	n	0	0    	 	0.0	0	118.165687700035	118.265607599984	0.0999198999488726
72207	100	127	stimuli\movNat\fire\mn_fire03.jpg                	1	2	1	mn_fire03.jpg        	movNat   	3	fire      	15	fire03      	152	not_alive	0	moves	1	natural 	1	n	0	0    	 	0.0	0	118.31568980007401	118.41558959998699	0.0998997999122366
72357	100	128	stimuli\nonmovArt\clothespeg\nma_clothespeg03.jpg	1	2	1	nma_clothespeg03.jpg 	nonmovArt	4	clothespeg	8	clothespeg03	82	not_alive	0	still	0	artefact	0	n	0	0    	 	0.0	0	118.46570210007499	118.56559710006701	0.0998949999921023
72507	100	129	stimuli\animals2\bee\animal_bee04.jpg            	1	2	1	animal_bee04.jpg     	animals2 	1	bee       	0	bee04       	3	alive    	1	moves	1	natural 	1	n	0	0    	 	0.0	0	118.615747199976	118.715597399976	0.099850200000219
72657	100	130	stimuli\movNat\fire\mn_fire01.jpg                	1	2	1	mn_fire01.jpg        	movNat   	3	fire      	15	fire01      	150	not_alive	0	moves	1	natural 	1	n	0	0    	 	0.0	0	118.765686900006	118.86565250007	0.0999656000640243
72807	100	131	stimuli\nonmovArt\clothespeg\nma_clothespeg01.jpg	1	2	1	nma_clothespeg01.jpg 	nonmovArt	4	clothespeg	8	clothespeg01	80	not_alive	0	still	0	artefact	0	n	0	0    	 	0.0	0	118.91568750003401	119.01559500000401	0.0999074999708682
72957	100	132	stimuli\movArt\helicopter\ma_helicopter06.jpg    	1	2	1	ma_helicopter06.jpg  	movArt   	2	helicopter	19	helicopter06	195	not_alive	0	moves	1	artefact	0	n	0	0    	 	0.0	0	119.06568390002899	119.165585500072	0.099901600042358
73107	100	133	stimuli\nonmovNat\cliff\nmn_cliff03.jpg          	1	2	1	nmn_cliff03.jpg      	nonmovNat	5	cliff     	7	cliff03     	72	not_alive	0	still	0	natural 	1	n	0	0    	 	0.0	0	119.215682400041	119.31559600005899	0.0999136000173166
73257	100	134	stimuli\nonmovNat\cliff\nmn_cliff04.jpg          	1	2	1	nmn_cliff04.jpg      	nonmovNat	5	cliff     	7	cliff04     	73	not_alive	0	still	0	natural 	1	n	0	0    	 	0.0	0	119.365684100077	119.46559050004	0.0999063999624922
73407	100	135	stimuli\plant\flower\plant_flower01.jpg          	1	2	1	plant_flower01.jpg   	plant    	6	flower    	16	flower01    	160	alive    	1	still	0	natural 	1	n	0	0    	 	0.0	0	119.515674500028	119.615582900005	0.0999083999777212
73557	100	136	stimuli\movArt\bus\ma_bus01.jpg                  	1	2	1	ma_bus01.jpg         	movArt   	2	bus       	3	bus01       	30	not_alive	0	moves	1	artefact	0	n	0	0    	 	0.0	0	119.66568079998301	119.765579600004	0.0998988000210374
73707	100	137	stimuli\plant\vine\plant_vine10.jpg              	1	2	1	plant_vine10.jpg     	plant    	6	vine      	36	vine10      	369	alive    	1	still	0	natural 	1	n	0	0    	 	0.0	0	119.81566580000799	119.915587800089	0.0999220000812783
73857	100	138	stimuli\nonmovArt\clothespeg\nma_clothespeg10.jpg	1	2	1	nma_clothespeg10.jpg 	nonmovArt	4	clothespeg	8	clothespeg10	89	not_alive	0	still	0	artefact	0	n	0	0    	 	0.0	0	119.965677900007	120.065588900005	0.0999109999975189
74007	100	139	stimuli\nonmovArt\mug\nma_mug06.jpg              	1	2	1	nma_mug06.jpg        	nonmovArt	4	mug       	26	mug06       	265	not_alive	0	still	0	artefact	0	n	1	0    	 	0.0	0	120.115671099978	120.21555020008199	0.0998791001038625
74157	100	140	stimuli\plant2\lemontree\plant_lemontree09.jpg   	1	2	1	plant_lemontree09.jpg	plant2   	7	lemontree 	22	lemontree09 	228	alive    	1	still	0	natural 	1	n	0	0    	 	0.0	0	120.26566869998399	120.36557690007601	0.0999082000926137
74307	100	141	stimuli\plant\grass\plant_grass01.jpg            	1	2	1	plant_grass01.jpg    	plant    	6	grass     	17	grass01     	170	alive    	1	still	0	natural 	1	n	0	1    	f	0.39198020007461293	1	120.41567130002701	120.51557829999399	0.0999069999670609
74457	100	142	stimuli\nonmovArt\bench\nma_bench07.jpg          	1	2	1	nma_bench07.jpg      	nonmovArt	4	bench     	1	bench07     	16	not_alive	0	still	0	artefact	0	n	0	0    	 	0.0	0	120.56566560000601	120.66558630007799	0.0999207000713795
74607	100	143	stimuli\animals\eagle\animal_eagle01.jpg         	1	2	1	animal_eagle01.jpg   	animals  	0	eagle     	13	eagle01     	130	alive    	1	moves	1	natural 	1	n	0	0    	 	0.0	0	120.715670300066	120.81557910004601	0.099908799980767
74757	100	144	stimuli\animals2\pigeon\animal_pigeon01.jpg      	1	2	1	animal_pigeon01.jpg  	animals2 	1	pigeon    	28	pigeon01    	280	alive    	1	moves	1	natural 	1	n	0	0    	 	0.0	0	120.86577520007299	120.965574800037	0.0997995999641716
74907	100	145	stimuli\movArt\bus\ma_bus09.jpg                  	1	2	1	ma_bus09.jpg         	movArt   	2	bus       	3	bus09       	38	not_alive	0	moves	1	artefact	0	n	0	0    	 	0.0	0	121.015677800053	121.115563000087	0.0998852000338956
75057	100	146	stimuli\nonmovNat\rock\nmn_rock02.jpg            	1	2	1	nmn_rock02.jpg       	nonmovNat	5	rock      	30	rock02      	301	not_alive	0	still	0	natural 	1	n	1	0    	 	0.0	0	121.165665499982	121.265565900016	0.0999004000332206
75207	100	147	stimuli\nonmovArt\lock\nma_lock07.jpg            	1	2	1	nma_lock07.jpg       	nonmovArt	4	lock      	24	lock07      	246	not_alive	0	still	0	artefact	0	n	0	0    	 	0.0	0	121.31567100004801	121.415572999977	0.0999019999289885
75357	100	148	stimuli\plant2\clover\plant_clover06.jpg         	1	2	1	plant_clover06.jpg   	plant2   	7	clover    	9	clover06    	95	alive    	1	still	0	natural 	1	n	0	0    	 	0.0	0	121.465650700033	121.565589200007	0.0999384999740868
75507	100	149	stimuli\animals2\whale\animal_whale10.jpg        	1	2	1	animal_whale10.jpg   	animals2 	1	whale     	39	whale10     	399	alive    	1	moves	1	natural 	1	n	0	1    	f	0.44205569999758204	1	121.615674600005	121.71557630004801	0.0999017000431194
75657	100	150	stimuli\plant\tree\plant_tree08.jpg              	1	2	1	plant_tree08.jpg     	plant    	6	tree      	35	tree08      	357	alive    	1	still	0	natural 	1	n	0	0    	 	0.0	0	121.76566350006	121.86563810007601	0.0999746000161394
75807	100	151	stimuli\movNat\hotspring\mn_hotspring10.jpg      	1	2	1	mn_hotspring10.jpg   	movNat   	3	hotspring 	21	hotspring10 	219	not_alive	0	moves	1	natural 	1	n	0	0    	 	0.0	0	121.91566380008601	122.015576799982	0.0999129998963326
75957	100	152	stimuli\animals\horse\animal_horse10.jpg         	1	2	1	animal_horse10.jpg   	animals  	0	horse     	20	horse10     	209	alive    	1	moves	1	natural 	1	n	0	0    	 	0.0	0	122.065766000072	122.165705500054	0.0999394999817013
76107	100	153	stimuli\nonmovNat\rock\nmn_rock10.jpg            	1	2	1	nmn_rock10.jpg       	nonmovNat	5	rock      	30	rock10      	309	not_alive	0	still	0	natural 	1	n	0	0    	 	0.0	0	122.215657900088	122.31555190007201	0.0998939999844878
76257	100	154	stimuli\animals\eagle\animal_eagle07.jpg         	1	2	1	animal_eagle07.jpg   	animals  	0	eagle     	13	eagle07     	136	alive    	1	moves	1	natural 	1	n	0	0    	 	0.0	0	122.365674300003	122.465569199994	0.0998948999913409
76407	100	155	stimuli\animals\cat\animal_cat01.jpg             	1	2	1	animal_cat01.jpg     	animals  	0	cat       	6	cat01       	60	alive    	1	moves	1	natural 	1	n	0	0    	 	0.0	0	122.51566829998	122.615568000008	0.0998997000278905
76557	100	156	stimuli\plant2\lemontree\plant_lemontree08.jpg   	1	2	1	plant_lemontree08.jpg	plant2   	7	lemontree 	22	lemontree08 	227	alive    	1	still	0	natural 	1	n	0	0    	 	0.0	0	122.665634699981	122.765569800045	0.0999351000646129
76707	100	157	stimuli\plant\tree\plant_tree09.jpg              	1	2	1	plant_tree09.jpg     	plant    	6	tree      	35	tree09      	358	alive    	1	still	0	natural 	1	n	0	0    	 	0.0	0	122.81564600008998	122.915548300021	0.0999022999312728
76857	100	158	stimuli\movNat\fire\mn_fire10.jpg                	1	2	1	mn_fire10.jpg        	movNat   	3	fire      	15	fire10      	159	not_alive	0	moves	1	natural 	1	n	0	0    	 	0.0	0	122.965632700012	123.065564100049	0.0999314000364393
77007	100	159	stimuli\movArt\boat\ma_boat05.jpg                	1	2	1	ma_boat05.jpg        	movArt   	2	boat      	2	boat05      	24	not_alive	0	moves	1	artefact	0	n	0	0    	 	0.0	0	123.11564940004601	123.21556070004601	0.0999112999998033
80891	100	160	stimuli\animals\cat\animal_cat06.jpg             	1	3	1	animal_cat06.jpg     	animals  	0	cat       	6	cat06       	65	alive    	1	moves	1	natural 	1	n	0	0    	 	0.0	0	126.998959899996	127.09885439998502	0.0998944999882951
81041	100	161	stimuli\plant\flower\plant_flower05.jpg          	1	3	1	plant_flower05.jpg   	plant    	6	flower    	16	flower05    	164	alive    	1	still	0	natural 	1	n	0	0    	 	0.0	0	127.148953700089	127.248855600017	0.099901899928227
81191	100	162	stimuli\nonmovArt\bench\nma_bench09.jpg          	1	3	1	nma_bench09.jpg      	nonmovArt	4	bench     	1	bench09     	18	not_alive	0	still	0	artefact	0	n	0	0    	 	0.0	0	127.298945000046	127.398850900005	0.099905899958685
81341	100	163	stimuli\animals2\pigeon\animal_pigeon08.jpg      	1	3	1	animal_pigeon08.jpg  	animals2 	1	pigeon    	28	pigeon08    	287	alive    	1	moves	1	natural 	1	n	0	0    	 	0.0	0	127.448956700042	127.54884569998801	0.0998889999464154
81491	100	164	stimuli\nonmovNat\cliff\nmn_cliff10.jpg          	1	3	1	nmn_cliff10.jpg      	nonmovNat	5	cliff     	7	cliff10     	79	not_alive	0	still	0	natural 	1	n	0	0    	 	0.0	0	127.59898160002199	127.69883450004299	0.0998529000207781
81641	100	165	stimuli\movNat\river\mn_river09.jpg              	1	3	1	mn_river09.jpg       	movNat   	3	river     	29	river09     	298	not_alive	0	moves	1	natural 	1	n	0	0    	 	0.0	0	127.74894660001199	127.84884950006399	0.0999029000522568
81791	100	166	stimuli\plant2\palmtree\plant_palmtree09.jpg     	1	3	1	plant_palmtree09.jpg 	plant2   	7	palmtree  	27	palmtree09  	278	alive    	1	still	0	natural 	1	n	0	0    	 	0.0	0	127.898954799981	127.99885860004	0.0999038000591099
81941	100	167	stimuli\movNat\river\mn_river01.jpg              	1	3	1	mn_river01.jpg       	movNat   	3	river     	29	river01     	290	not_alive	0	moves	1	natural 	1	n	0	0    	 	0.0	0	128.049012099975	128.148866300005	0.09985420003067698
82091	100	168	stimuli\nonmovArt\lock\nma_lock02.jpg            	1	3	1	nma_lock02.jpg       	nonmovArt	4	lock      	24	lock02      	241	not_alive	0	still	0	artefact	0	n	0	0    	 	0.0	0	128.198944600066	128.298840600066	0.0998959999997168
82241	100	169	stimuli\movArt\train\ma_train06.jpg              	1	3	1	ma_train06.jpg       	movArt   	2	train     	34	train06     	345	not_alive	0	moves	1	artefact	0	n	0	0    	 	0.0	0	128.348939200048	128.448832600028	0.0998933999799192
82391	100	170	stimuli\nonmovArt\headphones\nma_headphones08.jpg	1	3	1	nma_headphones08.jpg 	nonmovArt	4	headphones	18	headphones08	187	not_alive	0	still	0	artefact	0	n	0	0    	 	0.0	0	128.49893380003002	128.598853699979	0.0999198999488726
82541	100	171	stimuli\movArt\boat\ma_boat09.jpg                	1	3	1	ma_boat09.jpg        	movArt   	2	boat      	2	boat09      	28	not_alive	0	moves	1	artefact	0	n	0	0    	 	0.0	0	128.648947600042	128.74883330008	0.0998857000377029
82691	100	172	stimuli\movArt\car\ma_car06.jpg                  	1	3	1	ma_car06.jpg         	movArt   	2	car       	5	car06       	55	not_alive	0	moves	1	artefact	0	n	0	0    	 	0.0	0	128.79893960000499	128.898838300025	0.09989870002027601
82840	100	173	stimuli\animals2\pigeon\animal_pigeon10.jpg      	1	3	1	animal_pigeon10.jpg  	animals2 	1	pigeon    	28	pigeon10    	289	alive    	1	moves	1	natural 	1	n	0	0    	 	0.0	0	128.948930800078	129.04884110007	0.0999102999921888
82991	100	174	stimuli\movNat\waves\mn_waves01.jpg              	1	3	1	mn_waves01.jpg       	movNat   	3	waves     	38	waves01     	380	not_alive	0	moves	1	natural 	1	n	0	0    	 	0.0	0	129.09893179999202	129.198800200014	0.0998684000223875
83141	100	175	stimuli\plant\vine\plant_vine03.jpg              	1	3	1	plant_vine03.jpg     	plant    	6	vine      	36	vine03      	362	alive    	1	still	0	natural 	1	n	0	0    	 	0.0	0	129.248941300088	129.348840399995	0.0998990999069064
83290	100	176	stimuli\plant2\fern\plant_fern05.jpg             	1	3	1	plant_fern05.jpg     	plant2   	7	fern      	14	fern05      	144	alive    	1	still	0	natural 	1	n	0	0    	 	0.0	0	129.398919700063	129.498822699999	0.09990299993660301
83441	100	177	stimuli\plant2\clover\plant_clover06.jpg         	1	3	1	plant_clover06.jpg   	plant2   	7	clover    	9	clover06    	95	alive    	1	still	0	natural 	1	n	0	0    	 	0.0	0	129.548927100026	129.648834699998	0.0999075999716296
83591	100	178	stimuli\animals2\whale\animal_whale10.jpg        	1	3	1	animal_whale10.jpg   	animals2 	1	whale     	39	whale10     	399	alive    	1	moves	1	natural 	1	n	0	0    	 	0.0	0	129.698935199995	129.79882989998399	0.099894699989818
83741	100	179	stimuli\nonmovNat\sand\nmn_sand07.jpg            	1	3	1	nmn_sand07.jpg       	nonmovNat	5	sand      	31	sand07      	316	not_alive	0	still	0	natural 	1	n	0	0    	 	0.0	0	129.848995400011	129.948829500005	0.09983409999404101
83891	100	180	stimuli\nonmovArt\headphones\nma_headphones04.jpg	1	3	1	nma_headphones04.jpg 	nonmovArt	4	headphones	18	headphones04	183	not_alive	0	still	0	artefact	0	n	0	0    	 	0.0	0	129.998914099997	130.09884400002198	0.0999299000250175
84041	100	181	stimuli\animals2\lemur\animal_lemur01.jpg        	1	3	1	animal_lemur01.jpg   	animals2 	1	lemur     	23	lemur01     	230	alive    	1	moves	1	natural 	1	n	0	0    	 	0.0	0	130.148928700015	130.248828800046	0.0999001000309363
84191	100	182	stimuli\plant\vine\plant_vine03.jpg              	1	3	1	plant_vine03.jpg     	plant    	6	vine      	36	vine03      	362	alive    	1	still	0	natural 	1	n	0	0    	 	0.0	0	130.29892750002898	130.39882100001	0.0998934999806806
84341	100	183	stimuli\movNat\waterfall\mn_waterfall04.jpg      	1	3	1	mn_waterfall04.jpg   	movNat   	3	waterfall 	37	waterfall04 	373	not_alive	0	moves	1	natural 	1	n	0	0    	 	0.0	0	130.448923000018	130.548818100011	0.0998950999928638
84490	100	184	stimuli\nonmovNat\sand\nmn_sand02.jpg            	1	3	1	nmn_sand02.jpg       	nonmovNat	5	sand      	31	sand02      	311	not_alive	0	still	0	natural 	1	n	0	0    	 	0.0	0	130.59890029998502	130.698826599983	0.0999262999976053
84641	100	185	stimuli\animals2\lemur\animal_lemur06.jpg        	1	3	1	animal_lemur06.jpg   	animals2 	1	lemur     	23	lemur06     	235	alive    	1	moves	1	natural 	1	n	0	0    	 	0.0	0	130.748924100073	130.848821600084	0.0998975000111386
84790	100	186	stimuli\plant\grass\plant_grass05.jpg            	1	3	1	plant_grass05.jpg    	plant    	6	grass     	17	grass05     	174	alive    	1	still	0	natural 	1	n	0	0    	 	0.0	0	130.898914600024	130.998826400028	0.0999118000036105
84941	100	187	stimuli\nonmovNat\crystal\nmn_crystal10.jpg      	1	3	1	nmn_crystal10.jpg    	nonmovNat	5	crystal   	10	crystal10   	109	not_alive	0	still	0	natural 	1	n	0	0    	 	0.0	0	131.04892139998302	131.148820600007	0.0998992000240832
85091	100	188	stimuli\nonmovArt\bench\nma_bench04.jpg          	1	3	1	nma_bench04.jpg      	nonmovArt	4	bench     	1	bench04     	13	not_alive	0	still	0	artefact	0	n	0	0    	 	0.0	0	131.198928700062	131.298814199981	0.0998854999197647
85241	100	189	stimuli\animals2\bee\animal_bee04.jpg            	1	3	1	animal_bee04.jpg     	animals2 	1	bee       	0	bee04       	3	alive    	1	moves	1	natural 	1	n	0	0    	 	0.0	0	131.348925000057	131.448810399976	0.0998853999190032
85391	100	190	stimuli\animals\dog\animal_dog03.jpg             	1	3	1	animal_dog03.jpg     	animals  	0	dog       	11	dog03       	112	alive    	1	moves	1	natural 	1	n	0	0    	 	0.0	0	131.498911999981	131.598878500052	0.0999665000708773
85541	100	191	stimuli\plant\cactus\plant_cactus07.jpg          	1	3	1	plant_cactus07.jpg   	plant    	6	cactus    	4	cactus07    	46	alive    	1	still	0	natural 	1	n	0	0    	 	0.0	0	131.648920900072	131.74880880001	0.0998878999380394
85690	100	192	stimuli\movNat\waterfall\mn_waterfall09.jpg      	1	3	1	mn_waterfall09.jpg   	movNat   	3	waterfall 	37	waterfall09 	378	not_alive	0	moves	1	natural 	1	n	0	0    	 	0.0	0	131.79890310007602	131.898817399982	0.0999142999062314
85841	100	193	stimuli\animals\cat\animal_cat06.jpg             	1	3	1	animal_cat06.jpg     	animals  	0	cat       	6	cat06       	65	alive    	1	moves	1	natural 	1	n	0	0    	 	0.0	0	131.94892320001998	132.048798899981	0.0998756999615579
85990	100	194	stimuli\movArt\car\ma_car01.jpg                  	1	3	1	ma_car01.jpg         	movArt   	2	car       	5	car01       	50	not_alive	0	moves	1	artefact	0	n	1	0    	 	0.0	0	132.098905600025	132.198814700008	0.0999090999830514
86141	100	195	stimuli\nonmovArt\headphones\nma_headphones05.jpg	1	3	1	nma_headphones05.jpg 	nonmovArt	4	headphones	18	headphones05	184	not_alive	0	still	0	artefact	0	n	0	0    	 	0.0	0	132.248908700072	132.348880800069	0.0999720999971032
86290	100	196	stimuli\movArt\bus\ma_bus07.jpg                  	1	3	1	ma_bus07.jpg         	movArt   	2	bus       	3	bus07       	36	not_alive	0	moves	1	artefact	0	n	0	1    	f	0.39196469995658895	1	132.398890400073	132.498808100005	0.0999176999321207
86441	100	197	stimuli\plant\grass\plant_grass09.jpg            	1	3	1	plant_grass09.jpg    	plant    	6	grass     	17	grass09     	178	alive    	1	still	0	natural 	1	n	0	0    	 	0.0	0	132.548905399977	132.648808100028	0.0999027000507339
86591	100	198	stimuli\plant2\fern\plant_fern01.jpg             	1	3	1	plant_fern01.jpg     	plant2   	7	fern      	14	fern01      	140	alive    	1	still	0	natural 	1	n	0	0    	 	0.0	0	132.69891100004298	132.79879400006	0.0998830000171438
86741	100	199	stimuli\nonmovNat\shell\nmn_shell09.jpg          	1	3	1	nmn_shell09.jpg      	nonmovNat	5	shell     	32	shell09     	328	not_alive	0	still	0	natural 	1	n	0	0    	 	0.0	0	132.848898999975	132.94880090002	0.0999019000446424
86891	100	200	stimuli\movNat\hotspring\mn_hotspring01.jpg      	1	3	1	mn_hotspring01.jpg   	movNat   	3	hotspring 	21	hotspring01 	210	not_alive	0	moves	1	natural 	1	n	0	0    	 	0.0	0	132.998890200048	133.098808999988	0.0999187999404966
87041	100	201	stimuli\plant2\palmtree\plant_palmtree03.jpg     	1	3	1	plant_palmtree03.jpg 	plant2   	7	palmtree  	27	palmtree03  	272	alive    	1	still	0	natural 	1	n	0	0    	 	0.0	0	133.148902600049	133.248804100091	0.0999015000415966
87191	100	202	stimuli\nonmovArt\mug\nma_mug01.jpg              	1	3	1	nma_mug01.jpg        	nonmovArt	4	mug       	26	mug01       	260	not_alive	0	still	0	artefact	0	n	0	0    	 	0.0	0	133.298917800072	133.398884700029	0.0999668999575078
87341	100	203	stimuli\plant2\moss\plant_moss10.jpg             	1	3	1	plant_moss10.jpg     	plant2   	7	moss      	25	moss10      	259	alive    	1	still	0	natural 	1	n	0	0    	 	0.0	0	133.448935099994	133.548823600053	0.0998885000590235
87491	100	204	stimuli\animals2\tiger\animal_tiger04.jpg        	1	3	1	animal_tiger04.jpg   	animals2 	1	tiger     	33	tiger04     	333	alive    	1	moves	1	natural 	1	n	0	0    	 	0.0	0	133.598905300023	133.698803200037	0.0998979000141844
87640	100	205	stimuli\plant2\palmtree\plant_palmtree10.jpg     	1	3	1	plant_palmtree10.jpg 	plant2   	7	palmtree  	27	palmtree10  	279	alive    	1	still	0	natural 	1	n	0	0    	 	0.0	0	133.74889450008	133.848811400007	0.0999168999260291
87791	100	206	stimuli\animals\eagle\animal_eagle04.jpg         	1	3	1	animal_eagle04.jpg   	animals  	0	eagle     	13	eagle04     	133	alive    	1	moves	1	natural 	1	n	0	0    	 	0.0	0	133.898895499995	133.998796400032	0.0999009000370279
87941	100	207	stimuli\animals2\whale\animal_whale10.jpg        	1	3	1	animal_whale10.jpg   	animals2 	1	whale     	39	whale10     	399	alive    	1	moves	1	natural 	1	n	0	0    	 	0.0	0	134.048892799998	134.148794200039	0.0999014000408351
88091	100	208	stimuli\animals\dog\animal_dog08.jpg             	1	3	1	animal_dog08.jpg     	animals  	0	dog       	11	dog08       	117	alive    	1	moves	1	natural 	1	n	0	0    	 	0.0	0	134.198897400056	134.298794100061	0.09989670000504701
88241	100	209	stimuli\animals\dog\animal_dog10.jpg             	1	3	1	animal_dog10.jpg     	animals  	0	dog       	11	dog10       	119	alive    	1	moves	1	natural 	1	n	0	0    	 	0.0	0	134.34888960002	134.448801800027	0.0999122000066563
88391	100	210	stimuli\animals2\bee\animal_bee04.jpg            	1	3	1	animal_bee04.jpg     	animals2 	1	bee       	0	bee04       	3	alive    	1	moves	1	natural 	1	n	1	0    	 	0.0	0	134.498895400087	134.598787500057	0.0998920999700203
88541	100	211	stimuli\plant\cactus\plant_cactus03.jpg          	1	3	1	plant_cactus03.jpg   	plant    	6	cactus    	4	cactus03    	42	alive    	1	still	0	natural 	1	n	0	0    	 	0.0	0	134.64888590003798	134.748799100053	0.0999132000142708
88691	100	212	stimuli\animals2\tiger\animal_tiger01.jpg        	1	3	1	animal_tiger01.jpg   	animals2 	1	tiger     	33	tiger01     	330	alive    	1	moves	1	natural 	1	n	0	1    	f	0.39198169996961996	1	134.79889340000202	134.89880090008998	0.0999075000872835
88841	100	213	stimuli\nonmovNat\shell\nmn_shell04.jpg          	1	3	1	nmn_shell04.jpg      	nonmovNat	5	shell     	32	shell04     	323	not_alive	0	still	0	natural 	1	n	0	0    	 	0.0	0	134.948886000086	135.048797000083	0.0999109999975189
88990	100	214	stimuli\plant2\moss\plant_moss08.jpg             	1	3	1	plant_moss08.jpg     	plant2   	7	moss      	25	moss08      	257	alive    	1	still	0	natural 	1	n	0	0    	 	0.0	0	135.098882400081	135.198785500019	0.0999030999373644
89141	100	215	stimuli\plant2\fern\plant_fern03.jpg             	1	3	1	plant_fern03.jpg     	plant2   	7	fern      	14	fern03      	142	alive    	1	still	0	natural 	1	n	0	0    	 	0.0	0	135.24889270006702	135.34879229997802	0.0998995999107137
89290	100	216	stimuli\movNat\hotspring\mn_hotspring06.jpg      	1	3	1	mn_hotspring06.jpg   	movNat   	3	hotspring 	21	hotspring06 	215	not_alive	0	moves	1	natural 	1	n	0	0    	 	0.0	0	135.398877200088	135.498778300011	0.0999010999221354
89441	100	217	stimuli\movNat\waves\mn_waves02.jpg              	1	3	1	mn_waves02.jpg       	movNat   	3	waves     	38	waves02     	381	not_alive	0	moves	1	natural 	1	n	0	0    	 	0.0	0	135.548893800005	135.648780200048	0.09988640004303301
89590	100	218	stimuli\nonmovNat\rock\nmn_rock05.jpg            	1	3	1	nmn_rock05.jpg       	nonmovNat	5	rock      	30	rock05      	304	not_alive	0	still	0	natural 	1	n	0	0    	 	0.0	0	135.698878100025	135.798787500011	0.0999093999853357
89741	100	219	stimuli\nonmovArt\lock\nma_lock02.jpg            	1	3	1	nma_lock02.jpg       	nonmovArt	4	lock      	24	lock02      	241	not_alive	0	still	0	artefact	0	n	0	0    	 	0.0	0	135.848877900047	135.94877640006598	0.0998985000187531
89890	100	220	stimuli\animals2\tiger\animal_tiger03.jpg        	1	3	1	animal_tiger03.jpg   	animals2 	1	tiger     	33	tiger03     	332	alive    	1	moves	1	natural 	1	n	0	0    	 	0.0	0	135.998858800042	136.09877580008498	0.0999170000432059
90041	100	221	stimuli\movArt\car\ma_car06.jpg                  	1	3	1	ma_car06.jpg         	movArt   	2	car       	5	car06       	55	not_alive	0	moves	1	artefact	0	n	0	0    	 	0.0	0	136.14888810005502	136.248775499989	0.0998873999342322
90191	100	222	stimuli\nonmovNat\crystal\nmn_crystal03.jpg      	1	3	1	nmn_crystal03.jpg    	nonmovNat	5	crystal   	10	crystal03   	102	not_alive	0	still	0	natural 	1	n	0	0    	 	0.0	0	136.298879400012	136.39877550001302	0.0998961000004783
90341	100	223	stimuli\nonmovArt\mug\nma_mug06.jpg              	1	3	1	nma_mug06.jpg        	nonmovArt	4	mug       	26	mug06       	265	not_alive	0	still	0	artefact	0	n	0	0    	 	0.0	0	136.448876800016	136.548771500005	0.099894699989818
90491	100	224	stimuli\plant2\lemontree\plant_lemontree01.jpg   	1	3	1	plant_lemontree01.jpg	plant2   	7	lemontree 	22	lemontree01 	220	alive    	1	still	0	natural 	1	n	0	0    	 	0.0	0	136.598876800039	136.698788900045	0.0999121000058949
90641	100	225	stimuli\animals\horse\animal_horse06.jpg         	1	3	1	animal_horse06.jpg   	animals  	0	horse     	20	horse06     	205	alive    	1	moves	1	natural 	1	n	0	0    	 	0.0	0	136.748885800014	136.848785100039	0.0998993000248447
90791	100	226	stimuli\plant\flower\plant_flower01.jpg          	1	3	1	plant_flower01.jpg   	plant    	6	flower    	16	flower01    	160	alive    	1	still	0	natural 	1	n	0	0    	 	0.0	0	136.898882700014	136.99880150007098	0.0999188000569119
90941	100	227	stimuli\movArt\helicopter\ma_helicopter09.jpg    	1	3	1	ma_helicopter09.jpg  	movArt   	2	helicopter	19	helicopter09	198	not_alive	0	moves	1	artefact	0	n	0	0    	 	0.0	0	137.04886570002398	137.148782300064	0.0999166000401601
91091	100	228	stimuli\animals\dolphin\animal_dolphin09.jpg     	1	3	1	animal_dolphin09.jpg 	animals  	0	dolphin   	12	dolphin09   	128	alive    	1	moves	1	natural 	1	n	0	0    	 	0.0	0	137.19887369999202	137.29875940003	0.0998857000377029
91241	100	229	stimuli\movArt\boat\ma_boat06.jpg                	1	3	1	ma_boat06.jpg        	movArt   	2	boat      	2	boat06      	25	not_alive	0	moves	1	artefact	0	n	0	0    	 	0.0	0	137.348863100051	137.448758900049	0.0998957999981939
91390	100	230	stimuli\plant\tree\plant_tree08.jpg              	1	3	1	plant_tree08.jpg     	plant    	6	tree      	35	tree08      	357	alive    	1	still	0	natural 	1	n	0	0    	 	0.0	0	137.498861400061	137.598772800062	0.0999114000005647
91541	100	231	stimuli\movArt\helicopter\ma_helicopter01.jpg    	1	3	1	ma_helicopter01.jpg  	movArt   	2	helicopter	19	helicopter01	190	not_alive	0	moves	1	artefact	0	n	0	0    	 	0.0	0	137.648870200035	137.748785900068	0.09991570003330698
91691	100	232	stimuli\movNat\waterfall\mn_waterfall07.jpg      	1	3	1	mn_waterfall07.jpg   	movNat   	3	waterfall 	37	waterfall07 	376	not_alive	0	moves	1	natural 	1	n	0	0    	 	0.0	0	137.798878200003	137.898760400014	0.0998822000110522
91841	100	233	stimuli\plant2\clover\plant_clover06.jpg         	1	3	1	plant_clover06.jpg   	plant2   	7	clover    	9	clover06    	95	alive    	1	still	0	natural 	1	n	0	0    	 	0.0	0	137.948863100028	138.048776300042	0.0999132000142708
91991	100	234	stimuli\nonmovNat\shell\nmn_shell08.jpg          	1	3	1	nmn_shell08.jpg      	nonmovNat	5	shell     	32	shell08     	327	not_alive	0	still	0	natural 	1	n	0	0    	 	0.0	0	138.098871399998	138.198768500006	0.0998971000080928
92141	100	235	stimuli\plant\cactus\plant_cactus05.jpg          	1	3	1	plant_cactus05.jpg   	plant    	6	cactus    	4	cactus05    	44	alive    	1	still	0	natural 	1	n	0	0    	 	0.0	0	138.248872500029	138.34875620005198	0.0998837000224739
92291	100	236	stimuli\plant2\moss\plant_moss01.jpg             	1	3	1	plant_moss01.jpg     	plant2   	7	moss      	25	moss01      	250	alive    	1	still	0	natural 	1	n	0	0    	 	0.0	0	138.398869600031	138.498760999995	0.0998913999646902
92441	100	237	stimuli\animals2\lemur\animal_lemur04.jpg        	1	3	1	animal_lemur04.jpg   	animals2 	1	lemur     	23	lemur04     	233	alive    	1	moves	1	natural 	1	n	0	0    	 	0.0	0	138.548869900056	138.64876630005898	0.0998964000027626
92591	100	238	stimuli\animals\horse\animal_horse05.jpg         	1	3	1	animal_horse05.jpg   	animals  	0	horse     	20	horse05     	204	alive    	1	moves	1	natural 	1	n	0	0    	 	0.0	0	138.698901300086	138.798785599996	0.0998842999106273
92741	100	239	stimuli\nonmovNat\crystal\nmn_crystal04.jpg      	1	3	1	nmn_crystal04.jpg    	nonmovNat	5	crystal   	10	crystal04   	103	not_alive	0	still	0	natural 	1	n	0	0    	 	0.0	0	138.848868300091	138.94875370001	0.0998853999190032
95907	100	240	stimuli\plant\cactus\plant_cactus10.jpg          	1	4	1	plant_cactus10.jpg   	plant    	6	cactus    	4	cactus10    	49	alive    	1	still	0	natural 	1	n	0	0    	 	0.0	0	142.015607399982	142.115397499991	0.0997901000082492
96057	100	241	stimuli\nonmovNat\sand\nmn_sand05.jpg            	1	4	1	nmn_sand05.jpg       	nonmovNat	5	sand      	31	sand05      	314	not_alive	0	still	0	natural 	1	n	0	0    	 	0.0	0	142.165488200029	142.26539549999902	0.0999072999693453
96207	100	242	stimuli\animals2\tiger\animal_tiger09.jpg        	1	4	1	animal_tiger09.jpg   	animals2 	1	tiger     	33	tiger09     	338	alive    	1	moves	1	natural 	1	n	0	0    	 	0.0	0	142.315481099999	142.415392499999	0.0999114000005647
96357	100	243	stimuli\animals\cat\animal_cat09.jpg             	1	4	1	animal_cat09.jpg     	animals  	0	cat       	6	cat09       	68	alive    	1	moves	1	natural 	1	n	0	0    	 	0.0	0	142.465499300044	142.56539370003202	0.0998943999875336
96507	100	244	stimuli\nonmovNat\sand\nmn_sand01.jpg            	1	4	1	nmn_sand01.jpg       	nonmovNat	5	sand      	31	sand01      	310	not_alive	0	still	0	natural 	1	n	0	0    	 	0.0	0	142.615489999996	142.715403800015	0.0999138000188395
96657	100	245	stimuli\nonmovArt\clothespeg\nma_clothespeg08.jpg	1	4	1	nma_clothespeg08.jpg 	nonmovArt	4	clothespeg	8	clothespeg08	87	not_alive	0	still	0	artefact	0	n	0	0    	 	0.0	0	142.765495700063	142.865390200051	0.0998944999882951
96807	100	246	stimuli\animals2\lemur\animal_lemur04.jpg        	1	4	1	animal_lemur04.jpg   	animals2 	1	lemur     	23	lemur04     	233	alive    	1	moves	1	natural 	1	n	0	0    	 	0.0	0	142.915480000083	143.015384600032	0.0999045999487862
96957	100	247	stimuli\plant2\fern\plant_fern02.jpg             	1	4	1	plant_fern02.jpg     	plant2   	7	fern      	14	fern02      	141	alive    	1	still	0	natural 	1	n	0	0    	 	0.0	0	143.06549130007602	143.16538570006398	0.0998943999875336
97107	100	248	stimuli\movNat\river\mn_river05.jpg              	1	4	1	mn_river05.jpg       	movNat   	3	river     	29	river05     	294	not_alive	0	moves	1	natural 	1	n	0	0    	 	0.0	0	143.21550090005599	143.31538130005399	0.0998803999973461
97257	100	249	stimuli\animals\dolphin\animal_dolphin05.jpg     	1	4	1	animal_dolphin05.jpg 	animals  	0	dolphin   	12	dolphin05   	124	alive    	1	moves	1	natural 	1	n	0	1    	f	0.0	0	143.365482500056	143.465379200061	0.09989670000504701
97407	100	250	stimuli\animals2\lemur\animal_lemur06.jpg        	1	4	1	animal_lemur06.jpg   	animals2 	1	lemur     	23	lemur06     	235	alive    	1	moves	1	natural 	1	n	0	0    	 	0.0	0	143.51549190003402	143.615387300029	0.0998953999951481
97557	100	251	stimuli\movArt\train\ma_train09.jpg              	1	4	1	ma_train09.jpg       	movArt   	2	train     	34	train09     	348	not_alive	0	moves	1	artefact	0	n	0	0    	 	0.0	0	143.665476800059	143.765495000058	0.100018199998885
97707	100	252	stimuli\nonmovNat\sand\nmn_sand07.jpg            	1	4	1	nmn_sand07.jpg       	nonmovNat	5	sand      	31	sand07      	316	not_alive	0	still	0	natural 	1	n	0	0    	 	0.0	0	143.81558480009	143.91538920008998	0.0998044000007212
97857	100	253	stimuli\nonmovNat\shell\nmn_shell05.jpg          	1	4	1	nmn_shell05.jpg      	nonmovNat	5	shell     	32	shell05     	324	not_alive	0	still	0	natural 	1	n	0	0    	 	0.0	0	143.96548530005398	144.065390800009	0.0999054999556392
98007	100	254	stimuli\nonmovNat\rock\nmn_rock02.jpg            	1	4	1	nmn_rock02.jpg       	nonmovNat	5	rock      	30	rock02      	301	not_alive	0	still	0	natural 	1	n	0	0    	 	0.0	0	144.115589200053	144.215382900089	0.0997937000356614
98157	100	255	stimuli\movArt\train\ma_train01.jpg              	1	4	1	ma_train01.jpg       	movArt   	2	train     	34	train01     	340	not_alive	0	moves	1	artefact	0	n	0	0    	 	0.0	0	144.26547480002	144.365381499985	0.0999066999647766
98307	100	256	stimuli\movArt\helicopter\ma_helicopter08.jpg    	1	4	1	ma_helicopter08.jpg  	movArt   	2	helicopter	19	helicopter08	197	not_alive	0	moves	1	artefact	0	n	0	0    	 	0.0	0	144.41548109997498	144.515375400078	0.0998943001031875
98457	100	257	stimuli\plant\cactus\plant_cactus06.jpg          	1	4	1	plant_cactus06.jpg   	plant    	6	cactus    	4	cactus06    	45	alive    	1	still	0	natural 	1	n	0	0    	 	0.0	0	144.565437100013	144.665384100052	0.09994700003881
98607	100	258	stimuli\plant\grass\plant_grass02.jpg            	1	4	1	plant_grass02.jpg    	plant    	6	grass     	17	grass02     	171	alive    	1	still	0	natural 	1	n	0	0    	 	0.0	0	144.71546400000798	144.815380600048	0.0999166000401601
98757	100	259	stimuli\movArt\boat\ma_boat03.jpg                	1	4	1	ma_boat03.jpg        	movArt   	2	boat      	2	boat03      	22	not_alive	0	moves	1	artefact	0	n	0	0    	 	0.0	0	144.865471600089	144.965368399979	0.0998967998893931
98907	100	260	stimuli\movNat\waves\mn_waves03.jpg              	1	4	1	mn_waves03.jpg       	movNat   	3	waves     	38	waves03     	382	not_alive	0	moves	1	natural 	1	n	0	0    	 	0.0	0	145.015466100071	145.115369000006	0.0999028999358415
99057	100	261	stimuli\plant2\moss\plant_moss10.jpg             	1	4	1	plant_moss10.jpg     	plant2   	7	moss      	25	moss10      	259	alive    	1	still	0	natural 	1	n	0	0    	 	0.0	0	145.165456800023	145.265358300065	0.0999015000415966
99207	100	262	stimuli\nonmovArt\lock\nma_lock08.jpg            	1	4	1	nma_lock08.jpg       	nonmovArt	4	lock      	24	lock08      	247	not_alive	0	still	0	artefact	0	n	0	0    	 	0.0	0	145.315462999977	145.41537439997802	0.0999114000005647
99357	100	263	stimuli\movNat\waterfall\mn_waterfall06.jpg      	1	4	1	mn_waterfall06.jpg   	movNat   	3	waterfall 	37	waterfall06 	375	not_alive	0	moves	1	natural 	1	n	0	0    	 	0.0	0	145.46552050008899	145.565474000061	0.0999534999718889
99507	100	264	stimuli\movArt\car\ma_car01.jpg                  	1	4	1	ma_car01.jpg         	movArt   	2	car       	5	car01       	50	not_alive	0	moves	1	artefact	0	n	0	0    	 	0.0	0	145.61555690004	145.715357300011	0.0998003999702632
99657	100	265	stimuli\nonmovArt\lock\nma_lock10.jpg            	1	4	1	nma_lock10.jpg       	nonmovArt	4	lock      	24	lock10      	249	not_alive	0	still	0	artefact	0	n	0	0    	 	0.0	0	145.765442700009	145.865372500033	0.0999298000242561
99807	100	266	stimuli\animals\eagle\animal_eagle10.jpg         	1	4	1	animal_eagle10.jpg   	animals  	0	eagle     	13	eagle10     	139	alive    	1	moves	1	natural 	1	n	0	0    	 	0.0	0	145.91545900004	146.015359200072	0.0999002000316977
99957	100	267	stimuli\plant2\palmtree\plant_palmtree08.jpg     	1	4	1	plant_palmtree08.jpg 	plant2   	7	palmtree  	27	palmtree08  	277	alive    	1	still	0	natural 	1	n	0	0    	 	0.0	0	146.065473000053	146.165372300078	0.0998993000248447
100107	100	268	stimuli\plant\flower\plant_flower06.jpg          	1	4	1	plant_flower06.jpg   	plant    	6	flower    	16	flower06    	165	alive    	1	still	0	natural 	1	n	0	0    	 	0.0	0	146.215469300048	146.315361000015	0.0998916999669745
100257	100	269	stimuli\plant2\palmtree\plant_palmtree01.jpg     	1	4	1	plant_palmtree01.jpg 	plant2   	7	palmtree  	27	palmtree01  	270	alive    	1	still	0	natural 	1	n	0	0    	 	0.0	0	146.365460900008	146.465353999985	0.0998930999776348
100407	100	270	stimuli\nonmovNat\crystal\nmn_crystal08.jpg      	1	4	1	nmn_crystal08.jpg    	nonmovNat	5	crystal   	10	crystal08   	107	not_alive	0	still	0	natural 	1	n	0	0    	 	0.0	0	146.515466100071	146.615356300026	0.0998901999555528
100557	100	271	stimuli\nonmovArt\lock\nma_lock02.jpg            	1	4	1	nma_lock02.jpg       	nonmovArt	4	lock      	24	lock02      	241	not_alive	0	still	0	artefact	0	n	0	0    	 	0.0	0	146.66547520004698	146.765368000022	0.0998927999753505
100707	100	272	stimuli\plant\tree\plant_tree02.jpg              	1	4	1	plant_tree02.jpg     	plant    	6	tree      	35	tree02      	351	alive    	1	still	0	natural 	1	n	0	0    	 	0.0	0	146.815451100003	146.91535600007	0.0999049000674858
100857	100	273	stimuli\movNat\fire\mn_fire02.jpg                	1	4	1	mn_fire02.jpg        	movNat   	3	fire      	15	fire02      	151	not_alive	0	moves	1	natural 	1	n	0	0    	 	0.0	0	146.96545840008199	147.065355699975	0.0998972998932004
101007	100	274	stimuli\nonmovArt\headphones\nma_headphones03.jpg	1	4	1	nma_headphones03.jpg 	nonmovArt	4	headphones	18	headphones03	182	not_alive	0	still	0	artefact	0	n	0	0    	 	0.0	0	147.115447400021	147.21537009999201	0.0999226999701932
101157	100	275	stimuli\movNat\waves\mn_waves08.jpg              	1	4	1	mn_waves08.jpg       	movNat   	3	waves     	38	waves08     	387	not_alive	0	moves	1	natural 	1	n	0	0    	 	0.0	0	147.265475900029	147.365349699976	0.0998737999470904
101307	100	276	stimuli\nonmovArt\clothespeg\nma_clothespeg07.jpg	1	4	1	nma_clothespeg07.jpg 	nonmovArt	4	clothespeg	8	clothespeg07	86	not_alive	0	still	0	artefact	0	n	0	0    	 	0.0	0	147.415493300068	147.515373100061	0.0998797999927774
101457	100	277	stimuli\plant2\lemontree\plant_lemontree02.jpg   	1	4	1	plant_lemontree02.jpg	plant2   	7	lemontree 	22	lemontree02 	221	alive    	1	still	0	natural 	1	n	0	0    	 	0.0	0	147.56545150000602	147.66535850008898	0.0999070000834763
101607	100	278	stimuli\movArt\car\ma_car08.jpg                  	1	4	1	ma_car08.jpg         	movArt   	2	car       	5	car08       	57	not_alive	0	moves	1	artefact	0	n	0	0    	 	0.0	0	147.715436800034	147.815353700076	0.0999169000424444
101757	100	279	stimuli\nonmovArt\clothespeg\nma_clothespeg02.jpg	1	4	1	nma_clothespeg02.jpg 	nonmovArt	4	clothespeg	8	clothespeg02	81	not_alive	0	still	0	artefact	0	n	0	0    	 	0.0	0	147.865450300043	147.965374900028	0.0999245999846607
101907	100	280	stimuli\plant2\clover\plant_clover07.jpg         	1	4	1	plant_clover07.jpg   	plant2   	7	clover    	9	clover07    	96	alive    	1	still	0	natural 	1	n	0	0    	 	0.0	0	148.015440599993	148.115349499974	0.0999088999815285
102057	100	281	stimuli\movNat\waterfall\mn_waterfall02.jpg      	1	4	1	mn_waterfall02.jpg   	movNat   	3	waterfall 	37	waterfall02 	371	not_alive	0	moves	1	natural 	1	n	0	0    	 	0.0	0	148.16544370004	148.265350100002	0.0999063999624922
102207	100	282	stimuli\animals2\pigeon\animal_pigeon03.jpg      	1	4	1	animal_pigeon03.jpg  	animals2 	1	pigeon    	28	pigeon03    	282	alive    	1	moves	1	natural 	1	n	0	0    	 	0.0	0	148.315452300012	148.415337300044	0.0998850000323727
102357	100	283	stimuli\nonmovNat\cliff\nmn_cliff06.jpg          	1	4	1	nmn_cliff06.jpg      	nonmovNat	5	cliff     	7	cliff06     	75	not_alive	0	still	0	natural 	1	n	0	0    	 	0.0	0	148.465431699995	148.565354000079	0.0999223000835627
102507	100	284	stimuli\animals2\bee\animal_bee05.jpg            	1	4	1	animal_bee05.jpg     	animals2 	1	bee       	0	bee05       	4	alive    	1	moves	1	natural 	1	n	0	0    	 	0.0	0	148.615451900056	148.71533340006098	0.09988150000572199
102657	100	285	stimuli\nonmovNat\shell\nmn_shell05.jpg          	1	4	1	nmn_shell05.jpg      	nonmovNat	5	shell     	32	shell05     	324	not_alive	0	still	0	natural 	1	n	0	0    	 	0.0	0	148.765441299998	148.865364799974	0.0999234999762848
102807	100	286	stimuli\movNat\fire\mn_fire04.jpg                	1	4	1	mn_fire04.jpg        	movNat   	3	fire      	15	fire04      	153	not_alive	0	moves	1	natural 	1	n	0	0    	 	0.0	0	148.91544230002899	149.015402500052	0.099960200022906
102957	100	287	stimuli\movArt\bus\ma_bus06.jpg                  	1	4	1	ma_bus06.jpg         	movArt   	2	bus       	3	bus06       	35	not_alive	0	moves	1	artefact	0	n	0	0    	 	0.0	0	149.06564070004998	149.165433200076	0.09979250002652401
103107	100	288	stimuli\movNat\fire\mn_fire06.jpg                	1	4	1	mn_fire06.jpg        	movNat   	3	fire      	15	fire06      	155	not_alive	0	moves	1	natural 	1	n	0	0    	 	0.0	0	149.215444000089	149.31534239999	0.0998983999015763
103257	100	289	stimuli\nonmovArt\mug\nma_mug08.jpg              	1	4	1	nma_mug08.jpg        	nonmovArt	4	mug       	26	mug08       	267	not_alive	0	still	0	artefact	0	n	0	0    	 	0.0	0	149.365425600088	149.465347800055	0.0999221999663859
103407	100	290	stimuli\plant2\palmtree\plant_palmtree08.jpg     	1	4	1	plant_palmtree08.jpg 	plant2   	7	palmtree  	27	palmtree08  	277	alive    	1	still	0	natural 	1	n	0	0    	 	0.0	0	149.515434800065	149.61533499998	0.0999001999152824
103557	100	291	stimuli\nonmovArt\headphones\nma_headphones01.jpg	1	4	1	nma_headphones01.jpg 	nonmovArt	4	headphones	18	headphones01	180	not_alive	0	still	0	artefact	0	n	0	0    	 	0.0	0	149.665443600039	149.765331699979	0.0998880999395623
103707	100	292	stimuli\nonmovArt\bench\nma_bench05.jpg          	1	4	1	nma_bench05.jpg      	nonmovArt	4	bench     	1	bench05     	14	not_alive	0	still	0	artefact	0	n	0	0    	 	0.0	0	149.815438700025	149.91535200004	0.0999133000150322
103857	100	293	stimuli\animals\cat\animal_cat01.jpg             	1	4	1	animal_cat01.jpg     	animals  	0	cat       	6	cat01       	60	alive    	1	moves	1	natural 	1	n	1	0    	 	0.0	0	149.965419900022	150.065334700048	0.09991480002645402
104007	100	294	stimuli\animals2\whale\animal_whale02.jpg        	1	4	1	animal_whale02.jpg   	animals2 	1	whale     	39	whale02     	391	alive    	1	moves	1	natural 	1	n	0	0    	 	0.0	0	150.115441899979	150.215332400054	0.0998905000742524
104157	100	295	stimuli\movArt\bus\ma_bus10.jpg                  	1	4	1	ma_bus10.jpg         	movArt   	2	bus       	3	bus10       	39	not_alive	0	moves	1	artefact	0	n	0	0    	 	0.0	0	150.265435700072	150.365334799979	0.0998990999069064
104307	100	296	stimuli\plant2\moss\plant_moss08.jpg             	1	4	1	plant_moss08.jpg     	plant2   	7	moss      	25	moss08      	257	alive    	1	still	0	natural 	1	n	0	1    	f	0.44205610000062706	1	150.41541880008302	150.51531260006598	0.09989379998296499
104457	100	297	stimuli\plant2\clover\plant_clover04.jpg         	1	4	1	plant_clover04.jpg   	plant2   	7	clover    	9	clover04    	93	alive    	1	still	0	natural 	1	n	0	0    	 	0.0	0	150.565427500056	150.664558400051	0.099130899994634
104606	100	298	stimuli\nonmovNat\cliff\nmn_cliff05.jpg          	1	4	1	nmn_cliff05.jpg      	nonmovNat	5	cliff     	7	cliff05     	74	not_alive	0	still	0	natural 	1	n	1	0    	 	0.0	0	150.71457000006902	150.814552400028	0.0999823999591171
104756	100	299	stimuli\plant\cactus\plant_cactus04.jpg          	1	4	1	plant_cactus04.jpg   	plant    	6	cactus    	4	cactus04    	43	alive    	1	still	0	natural 	1	n	0	0    	 	0.0	0	150.864570299978	150.96455859998198	0.0999883000040426
104906	100	300	stimuli\plant2\lemontree\plant_lemontree03.jpg   	1	4	1	plant_lemontree03.jpg	plant2   	7	lemontree 	22	lemontree03 	222	alive    	1	still	0	natural 	1	n	0	0    	 	0.0	0	151.014569199993	151.114558500005	0.0999893000116571
105056	100	301	stimuli\nonmovArt\mug\nma_mug08.jpg              	1	4	1	nma_mug08.jpg        	nonmovArt	4	mug       	26	mug08       	267	not_alive	0	still	0	artefact	0	n	0	1    	f	0.44212629995308794	1	151.164569100016	151.26455740001998	0.0999883000040426
105206	100	302	stimuli\nonmovArt\headphones\nma_headphones01.jpg	1	4	1	nma_headphones01.jpg 	nonmovArt	4	headphones	18	headphones01	180	not_alive	0	still	0	artefact	0	n	0	0    	 	0.0	0	151.314566400019	151.414553500013	0.0999870999949052
105356	100	303	stimuli\movArt\bus\ma_bus10.jpg                  	1	4	1	ma_bus10.jpg         	movArt   	2	bus       	3	bus10       	39	not_alive	0	moves	1	artefact	0	n	0	0    	 	0.0	0	151.46456430002598	151.564553500037	0.0999892000108957
105506	100	304	stimuli\animals\horse\animal_horse08.jpg         	1	4	1	animal_horse08.jpg   	animals  	0	horse     	20	horse08     	207	alive    	1	moves	1	natural 	1	n	0	0    	 	0.0	0	151.614562300034	151.714552300051	0.0999900000169873
105656	100	305	stimuli\movArt\boat\ma_boat04.jpg                	1	4	1	ma_boat04.jpg        	movArt   	2	boat      	2	boat04      	23	not_alive	0	moves	1	artefact	0	n	0	0    	 	0.0	0	151.764562500059	151.86455410008801	0.0999916000291705
105806	100	306	stimuli\movArt\helicopter\ma_helicopter01.jpg    	1	4	1	ma_helicopter01.jpg  	movArt   	2	helicopter	19	helicopter01	190	not_alive	0	moves	1	artefact	0	n	0	0    	 	0.0	0	151.914561400074	152.01454920007401	0.0999878000002354
105956	100	307	stimuli\plant2\fern\plant_fern08.jpg             	1	4	1	plant_fern08.jpg     	plant2   	7	fern      	14	fern08      	147	alive    	1	still	0	natural 	1	n	0	0    	 	0.0	0	152.06456109997802	152.164550999994	0.0999899000162258
106106	100	308	stimuli\nonmovArt\bench\nma_bench05.jpg          	1	4	1	nma_bench05.jpg      	nonmovArt	4	bench     	1	bench05     	14	not_alive	0	still	0	artefact	0	n	0	0    	 	0.0	0	152.214558499982	152.314548599999	0.0999901000177487
106256	100	309	stimuli\plant2\lemontree\plant_lemontree06.jpg   	1	4	1	plant_lemontree06.jpg	plant2   	7	lemontree 	22	lemontree06 	225	alive    	1	still	0	natural 	1	n	0	0    	 	0.0	0	152.364556199987	152.464545900002	0.0999897000147029
106406	100	310	stimuli\movNat\hotspring\mn_hotspring09.jpg      	1	4	1	mn_hotspring09.jpg   	movNat   	3	hotspring 	21	hotspring09 	218	not_alive	0	moves	1	natural 	1	n	0	0    	 	0.0	0	152.514555000002	152.61453570006398	0.0999807000625878
106556	100	311	stimuli\movArt\boat\ma_boat05.jpg                	1	4	1	ma_boat05.jpg        	movArt   	2	boat      	2	boat05      	24	not_alive	0	moves	1	artefact	0	n	0	0    	 	0.0	0	152.66455650003599	152.76454340003	0.0999868999933824
106706	100	312	stimuli\animals2\tiger\animal_tiger10.jpg        	1	4	1	animal_tiger10.jpg   	animals2 	1	tiger     	33	tiger10     	339	alive    	1	moves	1	natural 	1	n	0	0    	 	0.0	0	152.81455500004802	152.914543600054	0.09998860000632699
106856	100	313	stimuli\nonmovArt\bench\nma_bench08.jpg          	1	4	1	nma_bench08.jpg      	nonmovArt	4	bench     	1	bench08     	17	not_alive	0	still	0	artefact	0	n	0	0    	 	0.0	0	152.964552500052	153.064541500062	0.0999890000093728
107006	100	314	stimuli\nonmovNat\rock\nmn_rock10.jpg            	1	4	1	nmn_rock10.jpg       	nonmovNat	5	rock      	30	rock10      	309	not_alive	0	still	0	natural 	1	n	0	0    	 	0.0	0	153.114552600076	153.214540100074	0.099987499997951
107156	100	315	stimuli\animals2\bee\animal_bee02.jpg            	1	4	1	animal_bee02.jpg     	animals2 	1	bee       	0	bee02       	1	alive    	1	moves	1	natural 	1	n	0	0    	 	0.0	0	153.26455000008002	153.364540499984	0.0999904999043792
107306	100	316	stimuli\movNat\hotspring\mn_hotspring06.jpg      	1	4	1	mn_hotspring06.jpg   	movNat   	3	hotspring 	21	hotspring06 	215	not_alive	0	moves	1	natural 	1	n	0	0    	 	0.0	0	153.414551199996	153.514540900011	0.0999897000147029
107456	100	317	stimuli\animals\dog\animal_dog10.jpg             	1	4	1	animal_dog10.jpg     	animals  	0	dog       	11	dog10       	119	alive    	1	moves	1	natural 	1	n	0	0    	 	0.0	0	153.5645487	153.664537200006	0.0999885000055655
107606	100	318	stimuli\animals\horse\animal_horse06.jpg         	1	4	1	animal_horse06.jpg   	animals  	0	horse     	20	horse06     	205	alive    	1	moves	1	natural 	1	n	0	0    	 	0.0	0	153.714559999993	153.814536900027	0.0999769000336527
107756	100	319	stimuli\animals2\pigeon\animal_pigeon08.jpg      	1	4	1	animal_pigeon08.jpg  	animals2 	1	pigeon    	28	pigeon08    	287	alive    	1	moves	1	natural 	1	n	0	0    	 	0.0	0	153.86457470001199	153.964536100044	0.0999614000320434
110956	100	320	stimuli\plant\vine\plant_vine01.jpg              	1	5	1	plant_vine01.jpg     	plant    	6	vine      	36	vine01      	360	alive    	1	still	0	natural 	1	n	0	0    	 	0.0	0	157.064525500056	157.164510700037	0.0999851999804377
111106	100	321	stimuli\nonmovNat\crystal\nmn_crystal08.jpg      	1	5	1	nmn_crystal08.jpg    	nonmovNat	5	crystal   	10	crystal08   	107	not_alive	0	still	0	natural 	1	n	0	0    	 	0.0	0	157.214527899981	157.314508500043	0.0999806000618264
111256	100	322	stimuli\movNat\river\mn_river09.jpg              	1	5	1	mn_river09.jpg       	movNat   	3	river     	29	river09     	298	not_alive	0	moves	1	natural 	1	n	0	0    	 	0.0	0	157.364518200047	157.464507300057	0.0999891000101342
111406	100	323	stimuli\nonmovNat\crystal\nmn_crystal03.jpg      	1	5	1	nmn_crystal03.jpg    	nonmovNat	5	crystal   	10	crystal03   	102	not_alive	0	still	0	natural 	1	n	0	0    	 	0.0	0	157.514514700044	157.614506800077	0.0999921000329777
111556	100	324	stimuli\nonmovArt\mug\nma_mug07.jpg              	1	5	1	nma_mug07.jpg        	nonmovArt	4	mug       	26	mug07       	266	not_alive	0	still	0	artefact	0	n	0	0    	 	0.0	0	157.66451680008302	157.764505100087	0.0999883000040426
111706	100	325	stimuli\plant\grass\plant_grass06.jpg            	1	5	1	plant_grass06.jpg    	plant    	6	grass     	17	grass06     	175	alive    	1	still	0	natural 	1	n	0	0    	 	0.0	0	157.81451460008998	157.914501400082	0.0999867999926209
111856	100	326	stimuli\plant2\moss\plant_moss04.jpg             	1	5	1	plant_moss04.jpg     	plant2   	7	moss      	25	moss04      	253	alive    	1	still	0	natural 	1	n	0	0    	 	0.0	0	157.964512599981	158.06450199999398	0.0999894000124186
112006	100	327	stimuli\movArt\car\ma_car02.jpg                  	1	5	1	ma_car02.jpg         	movArt   	2	car       	5	car02       	51	not_alive	0	moves	1	artefact	0	n	0	0    	 	0.0	0	158.114511799999	158.21449980000003	0.0999880000017583
112156	100	328	stimuli\plant\tree\plant_tree01.jpg              	1	5	1	plant_tree01.jpg     	plant    	6	tree      	35	tree01      	350	alive    	1	still	0	natural 	1	n	0	0    	 	0.0	0	158.26451020001002	158.364498600014	0.0999884000048041
112306	100	329	stimuli\movNat\hotspring\mn_hotspring10.jpg      	1	5	1	mn_hotspring10.jpg   	movNat   	3	hotspring 	21	hotspring10 	219	not_alive	0	moves	1	natural 	1	n	0	0    	 	0.0	0	158.414511900046	158.514502100064	0.0999902000185102
112456	100	330	stimuli\plant\tree\plant_tree08.jpg              	1	5	1	plant_tree08.jpg     	plant    	6	tree      	35	tree08      	357	alive    	1	still	0	natural 	1	n	0	0    	 	0.0	0	158.564506600029	158.66449750005302	0.0999909000238403
112606	100	331	stimuli\animals2\whale\animal_whale02.jpg        	1	5	1	animal_whale02.jpg   	animals2 	1	whale     	39	whale02     	391	alive    	1	moves	1	natural 	1	n	0	0    	 	0.0	0	158.714510700083	158.814496400068	0.099985699984245
112756	100	332	stimuli\plant\flower\plant_flower04.jpg          	1	5	1	plant_flower04.jpg   	plant    	6	flower    	16	flower04    	163	alive    	1	still	0	natural 	1	n	0	0    	 	0.0	0	158.864508100087	158.96449410007298	0.0999859999865293
112906	100	333	stimuli\plant\vine\plant_vine03.jpg              	1	5	1	plant_vine03.jpg     	plant    	6	vine      	36	vine03      	362	alive    	1	still	0	natural 	1	n	0	0    	 	0.0	0	159.014513500035	159.114494599984	0.0999810999492183
113056	100	334	stimuli\animals\eagle\animal_eagle09.jpg         	1	5	1	animal_eagle09.jpg   	animals  	0	eagle     	13	eagle09     	138	alive    	1	moves	1	natural 	1	n	0	0    	 	0.0	0	159.164508800022	159.26449129998198	0.0999824999598786
113206	100	335	stimuli\animals2\pigeon\animal_pigeon06.jpg      	1	5	1	animal_pigeon06.jpg  	animals2 	1	pigeon    	28	pigeon06    	285	alive    	1	moves	1	natural 	1	n	0	0    	 	0.0	0	159.314505200018	159.41449290001802	0.099987699999474
113356	100	336	stimuli\plant\flower\plant_flower10.jpg          	1	5	1	plant_flower10.jpg   	plant    	6	flower    	16	flower10    	169	alive    	1	still	0	natural 	1	n	0	0    	 	0.0	0	159.46449929999702	159.56450420001102	0.10000490001402801
113506	100	337	stimuli\movArt\helicopter\ma_helicopter07.jpg    	1	5	1	ma_helicopter07.jpg  	movArt   	2	helicopter	19	helicopter07	196	not_alive	0	moves	1	artefact	0	n	1	0    	 	0.0	0	159.614500100026	159.714487600024	0.099987499997951
113656	100	338	stimuli\animals2\lemur\animal_lemur01.jpg        	1	5	1	animal_lemur01.jpg   	animals2 	1	lemur     	23	lemur01     	230	alive    	1	moves	1	natural 	1	n	0	0    	 	0.0	0	159.764498400036	159.864487200044	0.0999888000078499
113806	100	339	stimuli\animals\horse\animal_horse01.jpg         	1	5	1	animal_horse01.jpg   	animals  	0	horse     	20	horse01     	200	alive    	1	moves	1	natural 	1	n	0	0    	 	0.0	0	159.914496600046	160.014486100059	0.09998950001317998
113956	100	340	stimuli\nonmovNat\rock\nmn_rock07.jpg            	1	5	1	nmn_rock07.jpg       	nonmovNat	5	rock      	30	rock07      	306	not_alive	0	still	0	natural 	1	n	0	1    	f	0.44211780000478	1	160.06449550006099	160.16448580008	0.0999903000192716
114106	100	341	stimuli\plant2\fern\plant_fern04.jpg             	1	5	1	plant_fern04.jpg     	plant2   	7	fern      	14	fern04      	143	alive    	1	still	0	natural 	1	n	0	0    	 	0.0	0	160.214493000065	160.314484999981	0.09999199991580099
114256	100	342	stimuli\plant2\clover\plant_clover05.jpg         	1	5	1	plant_clover05.jpg   	plant2   	7	clover    	9	clover05    	94	alive    	1	still	0	natural 	1	n	0	0    	 	0.0	0	160.36449469998502	160.464484099997	0.0999894000124186
114406	100	343	stimuli\plant\grass\plant_grass04.jpg            	1	5	1	plant_grass04.jpg    	plant    	6	grass     	17	grass04     	173	alive    	1	still	0	natural 	1	n	0	0    	 	0.0	0	160.5144937	160.614481099998	0.0999873999971896
114556	100	344	stimuli\animals\dolphin\animal_dolphin02.jpg     	1	5	1	animal_dolphin02.jpg 	animals  	0	dolphin   	12	dolphin02   	121	alive    	1	moves	1	natural 	1	n	0	0    	 	0.0	0	160.664489999996	160.76448230003	0.0999923000345006
114706	100	345	stimuli\animals\dog\animal_dog08.jpg             	1	5	1	animal_dog08.jpg     	animals  	0	dog       	11	dog08       	117	alive    	1	moves	1	natural 	1	n	0	0    	 	0.0	0	160.814516599989	160.914502200088	0.0999856000998988
114856	100	346	stimuli\animals2\bee\animal_bee05.jpg            	1	5	1	animal_bee05.jpg     	animals2 	1	bee       	0	bee05       	4	alive    	1	moves	1	natural 	1	n	0	0    	 	0.0	0	160.964488900034	161.064478700049	0.0999898000154644
115006	100	347	stimuli\movArt\train\ma_train08.jpg              	1	5	1	ma_train08.jpg       	movArt   	2	train     	34	train08     	347	not_alive	0	moves	1	artefact	0	n	0	0    	 	0.0	0	161.114489400061	161.21447970008	0.0999903000192716
115156	100	348	stimuli\animals2\tiger\animal_tiger10.jpg        	1	5	1	animal_tiger10.jpg   	animals2 	1	tiger     	33	tiger10     	339	alive    	1	moves	1	natural 	1	n	0	0    	 	0.0	0	161.26448650006202	161.364475200069	0.0999887000070884
115306	100	349	stimuli\animals\dolphin\animal_dolphin01.jpg     	1	5	1	animal_dolphin01.jpg 	animals  	0	dolphin   	12	dolphin01   	120	alive    	1	moves	1	natural 	1	n	0	0    	 	0.0	0	161.414485200075	161.514472800074	0.0999875999987125
115456	100	350	stimuli\animals\eagle\animal_eagle07.jpg         	1	5	1	animal_eagle07.jpg   	animals  	0	eagle     	13	eagle07     	136	alive    	1	moves	1	natural 	1	n	1	0    	 	0.0	0	161.564485599985	161.66447419999201	0.09998860000632699
115606	100	351	stimuli\animals\cat\animal_cat05.jpg             	1	5	1	animal_cat05.jpg     	animals  	0	cat       	6	cat05       	64	alive    	1	moves	1	natural 	1	n	0	0    	 	0.0	0	161.714483499993	161.814471299993	0.0999878000002354
115756	100	352	stimuli\movNat\waves\mn_waves02.jpg              	1	5	1	mn_waves02.jpg       	movNat   	3	waves     	38	waves02     	381	not_alive	0	moves	1	natural 	1	n	0	1    	f	0.391975500038825	1	161.864480399992	161.964470600011	0.0999902000185102
115906	100	353	stimuli\nonmovNat\shell\nmn_shell02.jpg          	1	5	1	nmn_shell02.jpg      	nonmovNat	5	shell     	32	shell02     	321	not_alive	0	still	0	natural 	1	n	0	0    	 	0.0	0	162.014494500007	162.11447040003299	0.0999759000260382
116056	100	354	stimuli\plant\vine\plant_vine04.jpg              	1	5	1	plant_vine04.jpg     	plant    	6	vine      	36	vine04      	363	alive    	1	still	0	natural 	1	n	0	0    	 	0.0	0	162.16448080004199	162.264472000068	0.0999912000261247
116206	100	355	stimuli\nonmovNat\cliff\nmn_cliff10.jpg          	1	5	1	nmn_cliff10.jpg      	nonmovNat	5	cliff     	7	cliff10     	79	not_alive	0	still	0	natural 	1	n	0	0    	 	0.0	0	162.314483600087	162.415259900037	0.10077629995066699
116357	100	356	stimuli\animals2\whale\animal_whale02.jpg        	1	5	1	animal_whale02.jpg   	animals2 	1	whale     	39	whale02     	391	alive    	1	moves	1	natural 	1	n	0	0    	 	0.0	0	162.465321800089	162.565288800048	0.0999669999582693
116507	100	357	stimuli\movNat\waterfall\mn_waterfall06.jpg      	1	5	1	mn_waterfall06.jpg   	movNat   	3	waterfall 	37	waterfall06 	375	not_alive	0	moves	1	natural 	1	n	0	0    	 	0.0	0	162.61534540006	162.715181000065	0.0998356000054627
116657	100	358	stimuli\animals\dog\animal_dog02.jpg             	1	5	1	animal_dog02.jpg     	animals  	0	dog       	11	dog02       	111	alive    	1	moves	1	natural 	1	n	0	0    	 	0.0	0	162.765358700068	162.865239100065	0.0998803999973461
116807	100	359	stimuli\movNat\river\mn_river10.jpg              	1	5	1	mn_river10.jpg       	movNat   	3	river     	29	river10     	299	not_alive	0	moves	1	natural 	1	n	0	0    	 	0.0	0	162.915394200012	163.015252400073	0.099858200061135
116957	100	360	stimuli\nonmovNat\sand\nmn_sand02.jpg            	1	5	1	nmn_sand02.jpg       	nonmovNat	5	sand      	31	sand02      	311	not_alive	0	still	0	natural 	1	n	0	0    	 	0.0	0	163.065343599999	163.165232000058	0.099888400058262
117107	100	361	stimuli\animals2\whale\animal_whale07.jpg        	1	5	1	animal_whale07.jpg   	animals2 	1	whale     	39	whale07     	396	alive    	1	moves	1	natural 	1	n	0	0    	 	0.0	0	163.215358300018	163.315240300028	0.0998820000095292
117257	100	362	stimuli\nonmovArt\clothespeg\nma_clothespeg05.jpg	1	5	1	nma_clothespeg05.jpg 	nonmovArt	4	clothespeg	8	clothespeg05	84	not_alive	0	still	0	artefact	0	n	0	0    	 	0.0	0	163.365360200056	163.465243400075	0.0998832000186666
117407	100	363	stimuli\animals\dolphin\animal_dolphin01.jpg     	1	5	1	animal_dolphin01.jpg 	animals  	0	dolphin   	12	dolphin01   	120	alive    	1	moves	1	natural 	1	n	1	0    	 	0.0	0	163.51532580005	163.615257899975	0.0999320999253541
117557	100	364	stimuli\nonmovArt\headphones\nma_headphones07.jpg	1	5	1	nma_headphones07.jpg 	nonmovArt	4	headphones	18	headphones07	186	not_alive	0	still	0	artefact	0	n	0	0    	 	0.0	0	163.665345999994	163.765230500023	0.0998845000285655
117707	100	365	stimuli\plant\tree\plant_tree06.jpg              	1	5	1	plant_tree06.jpg     	plant    	6	tree      	35	tree06      	355	alive    	1	still	0	natural 	1	n	0	1    	f	0.305815999978222	1	163.81532709999	163.915210000006	0.0998829000163823
117857	100	366	stimuli\animals\horse\animal_horse07.jpg         	1	5	1	animal_horse07.jpg   	animals  	0	horse     	20	horse07     	206	alive    	1	moves	1	natural 	1	n	0	0    	 	0.0	0	163.965309399995	164.065237400006	0.09992800001055001
118007	100	367	stimuli\nonmovNat\crystal\nmn_crystal01.jpg      	1	5	1	nmn_crystal01.jpg    	nonmovNat	5	crystal   	10	crystal01   	100	not_alive	0	still	0	natural 	1	n	0	0    	 	0.0	0	164.115330800065	164.21521819999901	0.0998873999342322
118157	100	368	stimuli\plant\tree\plant_tree03.jpg              	1	5	1	plant_tree03.jpg     	plant    	6	tree      	35	tree03      	352	alive    	1	still	0	natural 	1	n	0	0    	 	0.0	0	164.265274400008	164.365311200032	0.10003680002410001
118307	100	369	stimuli\animals\cat\animal_cat07.jpg             	1	5	1	animal_cat07.jpg     	animals  	0	cat       	6	cat07       	66	alive    	1	moves	1	natural 	1	n	0	0    	 	0.0	0	164.415327200084	164.515218600049	0.0998913999646902
118457	100	370	stimuli\animals2\pigeon\animal_pigeon02.jpg      	1	5	1	animal_pigeon02.jpg  	animals2 	1	pigeon    	28	pigeon02    	281	alive    	1	moves	1	natural 	1	n	0	0    	 	0.0	0	164.565323200077	164.665219200077	0.0998959999997168
118607	100	371	stimuli\nonmovArt\mug\nma_mug01.jpg              	1	5	1	nma_mug01.jpg        	nonmovArt	4	mug       	26	mug01       	260	not_alive	0	still	0	artefact	0	n	0	0    	 	0.0	0	164.715320800082	164.815224500024	0.0999036999419331
118757	100	372	stimuli\animals2\lemur\animal_lemur03.jpg        	1	5	1	animal_lemur03.jpg   	animals2 	1	lemur     	23	lemur03     	232	alive    	1	moves	1	natural 	1	n	0	0    	 	0.0	0	164.865313300048	164.96521789999701	0.0999045999487862
118907	100	373	stimuli\nonmovNat\cliff\nmn_cliff03.jpg          	1	5	1	nmn_cliff03.jpg      	nonmovNat	5	cliff     	7	cliff03     	72	not_alive	0	still	0	natural 	1	n	0	0    	 	0.0	0	165.015310800052	165.115216900012	0.0999060999602079
119057	100	374	stimuli\plant\grass\plant_grass07.jpg            	1	5	1	plant_grass07.jpg    	plant    	6	grass     	17	grass07     	176	alive    	1	still	0	natural 	1	n	0	0    	 	0.0	0	165.165309600066	165.265204700059	0.0998950999928638
119207	100	375	stimuli\movArt\bus\ma_bus07.jpg                  	1	5	1	ma_bus07.jpg         	movArt   	2	bus       	3	bus07       	36	not_alive	0	moves	1	artefact	0	n	0	0    	 	0.0	0	165.315321100061	165.415215100045	0.0998939999844878
119357	100	376	stimuli\animals\dolphin\animal_dolphin05.jpg     	1	5	1	animal_dolphin05.jpg 	animals  	0	dolphin   	12	dolphin05   	124	alive    	1	moves	1	natural 	1	n	0	0    	 	0.0	0	165.465283000027	165.565206400002	0.0999233999755233
119507	100	377	stimuli\animals2\pigeon\animal_pigeon01.jpg      	1	5	1	animal_pigeon01.jpg  	animals2 	1	pigeon    	28	pigeon01    	280	alive    	1	moves	1	natural 	1	n	0	0    	 	0.0	0	165.615297200042	165.715201299987	0.0999040999449789
119657	100	378	stimuli\animals2\tiger\animal_tiger01.jpg        	1	5	1	animal_tiger01.jpg   	animals2 	1	tiger     	33	tiger01     	330	alive    	1	moves	1	natural 	1	n	0	0    	 	0.0	0	165.765315000084	165.86520790006	0.0998928999761119
119807	100	379	stimuli\plant\flower\plant_flower07.jpg          	1	5	1	plant_flower07.jpg   	plant    	6	flower    	16	flower07    	166	alive    	1	still	0	natural 	1	n	0	0    	 	0.0	0	165.915317700012	166.015219700057	0.0999020000454038
119957	100	380	stimuli\plant2\lemontree\plant_lemontree07.jpg   	1	5	1	plant_lemontree07.jpg	plant2   	7	lemontree 	22	lemontree07 	226	alive    	1	still	0	natural 	1	n	0	0    	 	0.0	0	166.06533630006	166.16523080004802	0.0998944999882951
120107	100	381	stimuli\movNat\river\mn_river09.jpg              	1	5	1	mn_river09.jpg       	movNat   	3	river     	29	river09     	298	not_alive	0	moves	1	natural 	1	n	0	0    	 	0.0	0	166.21530949999598	166.315216300078	0.0999068000819534
120257	100	382	stimuli\movNat\waves\mn_waves10.jpg              	1	5	1	mn_waves10.jpg       	movNat   	3	waves     	38	waves10     	389	not_alive	0	moves	1	natural 	1	n	0	0    	 	0.0	0	166.365352099994	166.465209000045	0.0998569000512361
120407	100	383	stimuli\movNat\hotspring\mn_hotspring02.jpg      	1	5	1	mn_hotspring02.jpg   	movNat   	3	hotspring 	21	hotspring02 	211	not_alive	0	moves	1	natural 	1	n	0	0    	 	0.0	0	166.515295900055	166.615211000084	0.0999151000287383
120557	100	384	stimuli\animals2\pigeon\animal_pigeon05.jpg      	1	5	1	animal_pigeon05.jpg  	animals2 	1	pigeon    	28	pigeon05    	284	alive    	1	moves	1	natural 	1	n	0	0    	 	0.0	0	166.665282499976	166.765197100001	0.0999146000249311
120707	100	385	stimuli\plant\tree\plant_tree03.jpg              	1	5	1	plant_tree03.jpg     	plant    	6	tree      	35	tree03      	352	alive    	1	still	0	natural 	1	n	0	0    	 	0.0	0	166.815283500007	166.915187100065	0.09990360005758699
120857	100	386	stimuli\animals2\lemur\animal_lemur07.jpg        	1	5	1	animal_lemur07.jpg   	animals2 	1	lemur     	23	lemur07     	236	alive    	1	moves	1	natural 	1	n	1	0    	 	0.0	0	166.96529560000602	167.065187400091	0.0998918000841513
121007	100	387	stimuli\plant2\moss\plant_moss01.jpg             	1	5	1	plant_moss01.jpg     	plant2   	7	moss      	25	moss01      	250	alive    	1	still	0	natural 	1	n	0	0    	 	0.0	0	167.115280000027	167.215188400005	0.0999083999777212
121157	100	388	stimuli\animals\cat\animal_cat06.jpg             	1	5	1	animal_cat06.jpg     	animals  	0	cat       	6	cat06       	65	alive    	1	moves	1	natural 	1	n	0	1    	f	0.391988700022921	1	167.265278900042	167.365192900063	0.0999140000203624
121307	100	389	stimuli\movArt\boat\ma_boat09.jpg                	1	5	1	ma_boat09.jpg        	movArt   	2	boat      	2	boat09      	28	not_alive	0	moves	1	artefact	0	n	0	0    	 	0.0	0	167.4152856	167.515200200025	0.0999146000249311
121457	100	390	stimuli\animals2\bee\animal_bee02.jpg            	1	5	1	animal_bee02.jpg     	animals2 	1	bee       	0	bee02       	1	alive    	1	moves	1	natural 	1	n	0	0    	 	0.0	0	167.56530280003798	167.665197200025	0.0998943999875336
121607	100	391	stimuli\plant\vine\plant_vine04.jpg              	1	5	1	plant_vine04.jpg     	plant    	6	vine      	36	vine04      	363	alive    	1	still	0	natural 	1	n	0	0    	 	0.0	0	167.71527689998	167.815188699984	0.0999118000036105
121757	100	392	stimuli\movArt\helicopter\ma_helicopter06.jpg    	1	5	1	ma_helicopter06.jpg  	movArt   	2	helicopter	19	helicopter06	195	not_alive	0	moves	1	artefact	0	n	0	0    	 	0.0	0	167.865307	167.965182400076	0.0998754000756889
121907	100	393	stimuli\movNat\river\mn_river01.jpg              	1	5	1	mn_river01.jpg       	movNat   	3	river     	29	river01     	290	not_alive	0	moves	1	natural 	1	n	0	0    	 	0.0	0	168.015290200012	168.115174900042	0.0998847000300884
122057	100	394	stimuli\animals\dog\animal_dog05.jpg             	1	5	1	animal_dog05.jpg     	animals  	0	dog       	11	dog05       	114	alive    	1	moves	1	natural 	1	n	0	0    	 	0.0	0	168.16527390002702	168.265187400044	0.0999135000165552
122207	100	395	stimuli\animals\dog\animal_dog07.jpg             	1	5	1	animal_dog07.jpg     	animals  	0	dog       	11	dog07       	116	alive    	1	moves	1	natural 	1	n	0	0    	 	0.0	0	168.31529170007	168.415185500053	0.09989379998296499
122357	100	396	stimuli\nonmovNat\rock\nmn_rock05.jpg            	1	5	1	nmn_rock05.jpg       	nonmovNat	5	rock      	30	rock05      	304	not_alive	0	still	0	natural 	1	n	0	0    	 	0.0	0	168.465281300014	168.565186500084	0.0999052000697702
122507	100	397	stimuli\plant2\moss\plant_moss02.jpg             	1	5	1	plant_moss02.jpg     	plant2   	7	moss      	25	moss02      	251	alive    	1	still	0	natural 	1	n	0	0    	 	0.0	0	168.615283800056	168.715180000057	0.0998962000012397
122657	100	398	stimuli\nonmovNat\crystal\nmn_crystal05.jpg      	1	5	1	nmn_crystal05.jpg    	nonmovNat	5	crystal   	10	crystal05   	104	not_alive	0	still	0	natural 	1	n	0	0    	 	0.0	0	168.765278900042	168.865181000088	0.0999021000461652
122807	100	399	stimuli\plant\cactus\plant_cactus01.jpg          	1	5	1	plant_cactus01.jpg   	plant    	6	cactus    	4	cactus01    	40	alive    	1	still	0	natural 	1	n	0	0    	 	0.0	0	168.91527390002702	169.01517899998	0.0999050999525934
127040	100	400	stimuli\nonmovArt\headphones\nma_headphones01.jpg	1	6	1	nma_headphones01.jpg 	nonmovArt	4	headphones	18	headphones01	180	not_alive	0	still	0	artefact	0	n	0	0    	 	0.0	0	173.14858759997898	173.248494800064	0.0999072000849992
127190	100	401	stimuli\movArt\boat\ma_boat01.jpg                	1	6	1	ma_boat01.jpg        	movArt   	2	boat      	2	boat01      	20	not_alive	0	moves	1	artefact	0	n	0	0    	 	0.0	0	173.298580100061	173.39848730003	0.0999071999685838
127340	100	402	stimuli\movNat\river\mn_river07.jpg              	1	6	1	mn_river07.jpg       	movNat   	3	river     	29	river07     	296	not_alive	0	moves	1	natural 	1	n	0	0    	 	0.0	0	173.448575400049	173.54848800005902	0.0999126000097021
127490	100	403	stimuli\movNat\fire\mn_fire07.jpg                	1	6	1	mn_fire07.jpg        	movNat   	3	fire      	15	fire07      	156	not_alive	0	moves	1	natural 	1	n	0	0    	 	0.0	0	173.598577600089	173.698469100054	0.0998914999654516
127640	100	404	stimuli\nonmovArt\lock\nma_lock03.jpg            	1	6	1	nma_lock03.jpg       	nonmovArt	4	lock      	24	lock03      	242	not_alive	0	still	0	artefact	0	n	0	0    	 	0.0	0	173.748585500056	173.848473499995	0.0998879999388009
127790	100	405	stimuli\movArt\car\ma_car04.jpg                  	1	6	1	ma_car04.jpg         	movArt   	2	car       	5	car04       	53	not_alive	0	moves	1	artefact	0	n	0	0    	 	0.0	0	173.898575500003	173.998467200086	0.0998917000833898
127941	100	406	stimuli\animals\eagle\animal_eagle06.jpg         	1	6	1	animal_eagle06.jpg   	animals  	0	eagle     	13	eagle06     	135	alive    	1	moves	1	natural 	1	n	0	0    	 	0.0	0	174.048585399985	174.148490600055	0.0999052000697702
128090	100	407	stimuli\movArt\helicopter\ma_helicopter05.jpg    	1	6	1	ma_helicopter05.jpg  	movArt   	2	helicopter	19	helicopter05	194	not_alive	0	moves	1	artefact	0	n	0	0    	 	0.0	0	174.198578700074	174.298469300033	0.0998905999585986
128241	100	408	stimuli\animals2\whale\animal_whale01.jpg        	1	6	1	animal_whale01.jpg   	animals2 	1	whale     	39	whale01     	390	alive    	1	moves	1	natural 	1	n	0	0    	 	0.0	0	174.348586200038	174.448484400054	0.0998982000164687
128390	100	409	stimuli\animals\dolphin\animal_dolphin09.jpg     	1	6	1	animal_dolphin09.jpg 	animals  	0	dolphin   	12	dolphin09   	128	alive    	1	moves	1	natural 	1	n	0	0    	 	0.0	0	174.49857230007197	174.598466200056	0.0998938999837264
128540	100	410	stimuli\nonmovArt\headphones\nma_headphones02.jpg	1	6	1	nma_headphones02.jpg 	nonmovArt	4	headphones	18	headphones02	181	not_alive	0	still	0	artefact	0	n	0	0    	 	0.0	0	174.648580100038	174.748429800034	0.0998496999964118
128691	100	411	stimuli\plant2\lemontree\plant_lemontree05.jpg   	1	6	1	plant_lemontree05.jpg	plant2   	7	lemontree 	22	lemontree05 	224	alive    	1	still	0	natural 	1	n	0	0    	 	0.0	0	174.798671200057	174.898509500083	0.0998383000260219
128840	100	412	stimuli\movNat\waterfall\mn_waterfall10.jpg      	1	6	1	mn_waterfall10.jpg   	movNat   	3	waterfall 	37	waterfall10 	379	not_alive	0	moves	1	natural 	1	n	0	0    	 	0.0	0	174.948563600075	175.048551200074	0.0999875999987125
128990	100	413	stimuli\plant\vine\plant_vine04.jpg              	1	6	1	plant_vine04.jpg     	plant    	6	vine      	36	vine04      	363	alive    	1	still	0	natural 	1	n	0	0    	 	0.0	0	175.09856180008498	175.19845750008201	0.0998956999974325
129140	100	414	stimuli\nonmovNat\shell\nmn_shell01.jpg          	1	6	1	nmn_shell01.jpg      	nonmovNat	5	shell     	32	shell01     	320	not_alive	0	still	0	natural 	1	n	0	0    	 	0.0	0	175.248563300003	175.348466300056	0.0999030000530183
129290	100	415	stimuli\plant2\fern\plant_fern07.jpg             	1	6	1	plant_fern07.jpg     	plant2   	7	fern      	14	fern07      	146	alive    	1	still	0	natural 	1	n	0	0    	 	0.0	0	175.398553800071	175.498464800068	0.0999109999975189
129440	100	416	stimuli\plant2\fern\plant_fern10.jpg             	1	6	1	plant_fern10.jpg     	plant2   	7	fern      	14	fern10      	149	alive    	1	still	0	natural 	1	n	0	0    	 	0.0	0	175.548559900024	175.64846940001	0.0999094999860972
129590	100	417	stimuli\nonmovArt\clothespeg\nma_clothespeg08.jpg	1	6	1	nma_clothespeg08.jpg 	nonmovArt	4	clothespeg	8	clothespeg08	87	not_alive	0	still	0	artefact	0	n	0	0    	 	0.0	0	175.698562200065	175.798459700076	0.0998975000111386
129740	100	418	stimuli\movNat\waterfall\mn_waterfall04.jpg      	1	6	1	mn_waterfall04.jpg   	movNat   	3	waterfall 	37	waterfall04 	373	not_alive	0	moves	1	natural 	1	n	0	0    	 	0.0	0	175.84856020007302	175.94845909997798	0.0998988999053836
