onset	duration	eventnumber	stimulus_file	blockno	trialno	is_faststream	stim	stim_category	category_number	exemplar	exemplar_number	image_name	image_number	aliveness	aliveness_bin	movement	movement_bin	naturalness	naturalness_bin	response_hand_moves	istarget	response	keypressed	rt	correct	time_stimon	time_stimoff	stimdur
47557	100	0	stimuli\animals2\bee\animal_bee06.jpg            	1	1	1	animal_bee06.jpg     	animals2 	1	bee       	0	bee06       	5	alive    	1	moves	1	natural 	1	n	0	0    	 	0.0	0	85.7027309001423	85.802719600033	0.0999886998906731
47707	100	1	stimuli\nonmovArt\mug\nma_mug10.jpg              	1	1	1	nma_mug10.jpg        	nonmovArt	4	mug       	26	mug10       	269	not_alive	0	still	0	artefact	0	n	0	0    	 	0.0	0	85.8527645000722	85.9527509000618	0.0999863999895751
47857	100	2	stimuli\movNat\fire\mn_fire03.jpg                	1	1	1	mn_fire03.jpg        	movNat   	3	fire      	15	fire03      	152	not_alive	0	moves	1	natural 	1	n	0	0    	 	0.0	0	86.00277970009479	86.1027287000324	0.0999489999376237
48007	100	3	stimuli\plant2\lemontree\plant_lemontree05.jpg   	1	1	1	plant_lemontree05.jpg	plant2   	7	lemontree 	22	lemontree05 	224	alive    	1	still	0	natural 	1	n	0	0    	 	0.0	0	86.1527360000182	86.25272400002	0.0999880000017583
48157	100	4	stimuli\animals\cat\animal_cat09.jpg             	1	1	1	animal_cat09.jpg     	animals  	0	cat       	6	cat09       	68	alive    	1	moves	1	natural 	1	n	0	0    	 	0.0	0	86.3027353000362	86.40272130002269	0.0999859999865293
48307	100	5	stimuli\animals\cat\animal_cat03.jpg             	1	1	1	animal_cat03.jpg     	animals  	0	cat       	6	cat03       	62	alive    	1	moves	1	natural 	1	n	0	0    	 	0.0	0	86.4527307001408	86.5527176000178	0.099986899876967
48457	100	6	stimuli\movArt\boat\ma_boat08.jpg                	1	1	1	ma_boat08.jpg        	movArt   	2	boat      	2	boat08      	27	not_alive	0	moves	1	artefact	0	n	0	0    	 	0.0	0	86.60272710002029	86.7027154001407	0.099988300120458
48607	100	7	stimuli\movNat\hotspring\mn_hotspring02.jpg      	1	1	1	mn_hotspring02.jpg   	movNat   	3	hotspring 	21	hotspring02 	211	not_alive	0	moves	1	natural 	1	n	0	0    	 	0.0	0	86.75272590015079	86.85271660005671	0.0999906999059021
48758	100	8	stimuli\animals\dolphin\animal_dolphin02.jpg     	1	1	1	animal_dolphin02.jpg 	animals  	0	dolphin   	12	dolphin02   	121	alive    	1	moves	1	natural 	1	n	0	0    	 	0.0	0	86.9030824000947	87.0027089000214	0.0996264999266714
48907	100	9	stimuli\nonmovArt\bench\nma_bench02.jpg          	1	1	1	nma_bench02.jpg      	nonmovArt	4	bench     	1	bench02     	11	not_alive	0	still	0	artefact	0	n	0	0    	 	0.0	0	87.05271590012129	87.1527027001139	0.0999867999926209
49057	100	10	stimuli\animals\cat\animal_cat10.jpg             	1	1	1	animal_cat10.jpg     	animals  	0	cat       	6	cat10       	69	alive    	1	moves	1	natural 	1	n	0	0    	 	0.0	0	87.20271430001591	87.302696299972	0.0999819999560713
49207	100	11	stimuli\nonmovNat\cliff\nmn_cliff10.jpg          	1	1	1	nmn_cliff10.jpg      	nonmovNat	5	cliff     	7	cliff10     	79	not_alive	0	still	0	natural 	1	n	0	0    	 	0.0	0	87.3527134000324	87.4526953001041	0.0999819000717252
49357	100	12	stimuli\plant2\clover\plant_clover08.jpg         	1	1	1	plant_clover08.jpg   	plant2   	7	clover    	9	clover08    	97	alive    	1	still	0	natural 	1	n	1	0    	 	0.0	0	87.5027050001081	87.60270150005822	0.0999964999500662
49507	100	13	stimuli\animals\horse\animal_horse10.jpg         	1	1	1	animal_horse10.jpg   	animals  	0	horse     	20	horse10     	209	alive    	1	moves	1	natural 	1	n	0	0    	 	0.0	0	87.65270560001949	87.75271370005791	0.100008100038394
49657	100	14	stimuli\animals2\tiger\animal_tiger10.jpg        	1	1	1	animal_tiger10.jpg   	animals2 	1	tiger     	33	tiger10     	339	alive    	1	moves	1	natural 	1	n	0	1    	f	0.292155900038779	1	87.8027197001502	87.90269280015491	0.0999731000047177
49807	100	15	stimuli\plant\vine\plant_vine04.jpg              	1	1	1	plant_vine04.jpg     	plant    	6	vine      	36	vine04      	363	alive    	1	still	0	natural 	1	n	0	0    	 	0.0	0	87.95270190015431	88.05268950015311	0.0999875999987125
49957	100	16	stimuli\nonmovNat\crystal\nmn_crystal03.jpg      	1	1	1	nmn_crystal03.jpg    	nonmovNat	5	crystal   	10	crystal03   	102	not_alive	0	still	0	natural 	1	n	0	0    	 	0.0	0	88.1026978001464	88.2026885000523	0.0999906999059021
50107	100	17	stimuli\plant\vine\plant_vine09.jpg              	1	1	1	plant_vine09.jpg     	plant    	6	vine      	36	vine09      	368	alive    	1	still	0	natural 	1	n	0	0    	 	0.0	0	88.25270200008529	88.35269249998959	0.0999904999043792
50257	100	18	stimuli\nonmovNat\crystal\nmn_crystal09.jpg      	1	1	1	nmn_crystal09.jpg    	nonmovNat	5	crystal   	10	crystal09   	108	not_alive	0	still	0	natural 	1	n	1	0    	 	0.0	0	88.40270420000891	88.5026855999604	0.0999813999515026
50407	100	19	stimuli\plant2\moss\plant_moss09.jpg             	1	1	1	plant_moss09.jpg     	plant2   	7	moss      	25	moss09      	258	alive    	1	still	0	natural 	1	n	0	0    	 	0.0	0	88.55270190001471	88.6526864999905	0.099984599975869
50557	100	20	stimuli\plant2\fern\plant_fern06.jpg             	1	1	1	plant_fern06.jpg     	plant2   	7	fern      	14	fern06      	145	alive    	1	still	0	natural 	1	n	1	1    	f	0.0920124999247491	1	88.70269790012391	88.8026835001074	0.0999855999834835
50707	100	21	stimuli\nonmovNat\cliff\nmn_cliff04.jpg          	1	1	1	nmn_cliff04.jpg      	nonmovNat	5	cliff     	7	cliff04     	73	not_alive	0	still	0	natural 	1	n	0	0    	 	0.0	0	88.852695700014	88.952681099996	0.0999853999819606
50857	100	22	stimuli\nonmovNat\sand\nmn_sand06.jpg            	1	1	1	nmn_sand06.jpg       	nonmovNat	5	sand      	31	sand06      	315	not_alive	0	still	0	natural 	1	n	0	0    	 	0.0	0	89.00269440002741	89.10268490016459	0.0999905001372098
51007	100	23	stimuli\plant2\lemontree\plant_lemontree04.jpg   	1	1	1	plant_lemontree04.jpg	plant2   	7	lemontree 	22	lemontree04 	223	alive    	1	still	0	natural 	1	n	0	0    	 	0.0	0	89.15268980013211	89.25268360017799	0.0999938000459224
51157	100	24	stimuli\plant2\fern\plant_fern02.jpg             	1	1	1	plant_fern02.jpg     	plant2   	7	fern      	14	fern02      	141	alive    	1	still	0	natural 	1	n	0	0    	 	0.0	0	89.30269170016979	89.40267460001628	0.0999828998465091
51307	100	25	stimuli\plant\cactus\plant_cactus10.jpg          	1	1	1	plant_cactus10.jpg   	plant    	6	cactus    	4	cactus10    	49	alive    	1	still	0	natural 	1	n	0	0    	 	0.0	0	89.4526881000493	89.55270530004059	0.100017199991271
51457	100	26	stimuli\movArt\car\ma_car03.jpg                  	1	1	1	ma_car03.jpg         	movArt   	2	car       	5	car03       	52	not_alive	0	moves	1	artefact	0	n	0	0    	 	0.0	0	89.60268420004292	89.70267220004459	0.0999880000017583
51607	100	27	stimuli\nonmovArt\bench\nma_bench06.jpg          	1	1	1	nma_bench06.jpg      	nonmovArt	4	bench     	1	bench06     	15	not_alive	0	still	0	artefact	0	n	0	0    	 	0.0	0	89.75268999999392	89.8526727999561	0.0999827999621629
51757	100	28	stimuli\nonmovNat\shell\nmn_shell01.jpg          	1	1	1	nmn_shell01.jpg      	nonmovNat	5	shell     	32	shell01     	320	not_alive	0	still	0	natural 	1	n	0	0    	 	0.0	0	89.9026810000651	90.00267549999991	0.0999944999348372
51907	100	29	stimuli\animals\eagle\animal_eagle03.jpg         	1	1	1	animal_eagle03.jpg   	animals  	0	eagle     	13	eagle03     	132	alive    	1	moves	1	natural 	1	n	0	0    	 	0.0	0	90.05267850006929	90.1526715999935	0.0999930999241769
52057	100	30	stimuli\movNat\river\mn_river08.jpg              	1	1	1	mn_river08.jpg       	movNat   	3	river     	29	river08     	297	not_alive	0	moves	1	natural 	1	n	0	0    	 	0.0	0	90.2026786000934	90.30267370003281	0.0999950999394059
52207	100	31	stimuli\animals2\pigeon\animal_pigeon04.jpg      	1	1	1	animal_pigeon04.jpg  	animals2 	1	pigeon    	28	pigeon04    	283	alive    	1	moves	1	natural 	1	n	0	0    	 	0.0	0	90.3526775999926	90.4526657999959	0.0999882000032812
52357	100	32	stimuli\movArt\bus\ma_bus01.jpg                  	1	1	1	ma_bus01.jpg         	movArt   	2	bus       	3	bus01       	30	not_alive	0	moves	1	artefact	0	n	0	0    	 	0.0	0	90.5026818001643	90.60268490016459	0.10000310000032199
52507	100	33	stimuli\movArt\bus\ma_bus01.jpg                  	1	1	1	ma_bus01.jpg         	movArt   	2	bus       	3	bus01       	30	not_alive	0	moves	1	artefact	0	n	0	0    	 	0.0	0	90.65267740003759	90.7526686000638	0.0999912000261247
52657	100	34	stimuli\animals2\tiger\animal_tiger02.jpg        	1	1	1	animal_tiger02.jpg   	animals2 	1	tiger     	33	tiger02     	331	alive    	1	moves	1	natural 	1	n	0	0    	 	0.0	0	90.80267190001899	90.90266919997521	0.0999972999561578
52807	100	35	stimuli\movArt\boat\ma_boat05.jpg                	1	1	1	ma_boat05.jpg        	movArt   	2	boat      	2	boat05      	24	not_alive	0	moves	1	artefact	0	n	0	0    	 	0.0	0	90.95267510018309	91.0526660000905	0.099990899907425
52957	100	36	stimuli\animals\dog\animal_dog07.jpg             	1	1	1	animal_dog07.jpg     	animals  	0	dog       	11	dog07       	116	alive    	1	moves	1	natural 	1	n	0	0    	 	0.0	0	91.1026729999576	91.20266570011151	0.0999927001539617
53107	100	37	stimuli\movArt\helicopter\ma_helicopter05.jpg    	1	1	1	ma_helicopter05.jpg  	movArt   	2	helicopter	19	helicopter05	194	not_alive	0	moves	1	artefact	0	n	0	0    	 	0.0	0	91.2526752999984	91.3526755999774	0.10000029997900099
53257	100	38	stimuli\nonmovNat\rock\nmn_rock01.jpg            	1	1	1	nmn_rock01.jpg       	nonmovNat	5	rock      	30	rock01      	300	not_alive	0	still	0	natural 	1	n	0	0    	 	0.0	0	91.40267199999649	91.5026549999602	0.0999829999636858
53407	100	39	stimuli\movArt\car\ma_car10.jpg                  	1	1	1	ma_car10.jpg         	movArt   	2	car       	5	car10       	59	not_alive	0	moves	1	artefact	0	n	0	0    	 	0.0	0	91.5526634000707	91.65266020013951	0.0999968000687658
53557	100	40	stimuli\animals\horse\animal_horse02.jpg         	1	1	1	animal_horse02.jpg   	animals  	0	horse     	20	horse02     	201	alive    	1	moves	1	natural 	1	n	0	0    	 	0.0	0	91.7026685001329	91.8026533999946	0.09998489986173802
53707	100	41	stimuli\movNat\fire\mn_fire05.jpg                	1	1	1	mn_fire05.jpg        	movNat   	3	fire      	15	fire05      	154	not_alive	0	moves	1	natural 	1	n	0	0    	 	0.0	0	91.85266040009441	91.95265510003081	0.0999946999363601
53857	100	42	stimuli\plant2\moss\plant_moss10.jpg             	1	1	1	plant_moss10.jpg     	plant2   	7	moss      	25	moss10      	259	alive    	1	still	0	natural 	1	n	0	0    	 	0.0	0	92.0026672000531	92.10265110014	0.0999839000869542
54007	100	43	stimuli\nonmovNat\cliff\nmn_cliff05.jpg          	1	1	1	nmn_cliff05.jpg      	nonmovNat	5	cliff     	7	cliff05     	74	not_alive	0	still	0	natural 	1	n	0	0    	 	0.0	0	92.1526605000254	92.25265380018391	0.0999933001585304
54157	100	44	stimuli\animals2\whale\animal_whale09.jpg        	1	1	1	animal_whale09.jpg   	animals2 	1	whale     	39	whale09     	398	alive    	1	moves	1	natural 	1	n	0	0    	 	0.0	0	92.30265530012551	92.402645500144	0.0999902000185102
54307	100	45	stimuli\plant\flower\plant_flower04.jpg          	1	1	1	plant_flower04.jpg   	plant    	6	flower    	16	flower04    	163	alive    	1	still	0	natural 	1	n	0	0    	 	0.0	0	92.45265370002019	92.55265130009501	0.0999976000748574
54457	100	46	stimuli\movArt\car\ma_car07.jpg                  	1	1	1	ma_car07.jpg         	movArt   	2	car       	5	car07       	56	not_alive	0	moves	1	artefact	0	n	0	0    	 	0.0	0	92.602660600096	92.70264390017842	0.0999833000823855
54607	100	47	stimuli\animals2\bee\animal_bee06.jpg            	1	1	1	animal_bee06.jpg     	animals2 	1	bee       	0	bee06       	5	alive    	1	moves	1	natural 	1	n	0	0    	 	0.0	0	92.75265250005761	92.85264430008829	0.0999918000306934
54757	100	48	stimuli\plant2\fern\plant_fern10.jpg             	1	1	1	plant_fern10.jpg     	plant2   	7	fern      	14	fern10      	149	alive    	1	still	0	natural 	1	n	0	0    	 	0.0	0	92.90264960005881	93.00263680005449	0.0999871999956667
54907	100	49	stimuli\animals\eagle\animal_eagle01.jpg         	1	1	1	animal_eagle01.jpg   	animals  	0	eagle     	13	eagle01     	130	alive    	1	moves	1	natural 	1	n	0	0    	 	0.0	0	93.05267540016209	93.1526415001135	0.0999660999514162
55057	100	50	stimuli\plant\grass\plant_grass06.jpg            	1	1	1	plant_grass06.jpg    	plant    	6	grass     	17	grass06     	175	alive    	1	still	0	natural 	1	n	0	0    	 	0.0	0	93.2026530001312	93.30263629998079	0.0999832998495549
55207	100	51	stimuli\plant\tree\plant_tree03.jpg              	1	1	1	plant_tree03.jpg     	plant    	6	tree      	35	tree03      	352	alive    	1	still	0	natural 	1	n	0	0    	 	0.0	0	93.35264579998329	93.4526347001083	0.0999889001250267
55357	100	52	stimuli\plant\tree\plant_tree06.jpg              	1	1	1	plant_tree06.jpg     	plant    	6	tree      	35	tree06      	355	alive    	1	still	0	natural 	1	n	0	0    	 	0.0	0	93.50264320010321	93.60263630002741	0.0999930999241769
55507	100	53	stimuli\nonmovArt\lock\nma_lock02.jpg            	1	1	1	nma_lock02.jpg       	nonmovArt	4	lock      	24	lock02      	241	not_alive	0	still	0	artefact	0	n	0	0    	 	0.0	0	93.6526494000573	93.7526331001427	0.0999837000854313
55657	100	54	stimuli\nonmovNat\shell\nmn_shell04.jpg          	1	1	1	nmn_shell04.jpg      	nonmovNat	5	shell     	32	shell04     	323	not_alive	0	still	0	natural 	1	n	0	0    	 	0.0	0	93.8026432001498	93.90263779996891	0.0999945998191833
55807	100	55	stimuli\nonmovArt\lock\nma_lock03.jpg            	1	1	1	nma_lock03.jpg       	nonmovArt	4	lock      	24	lock03      	242	not_alive	0	still	0	artefact	0	n	0	0    	 	0.0	0	93.952647899976	94.05263560009192	0.0999877001158893
55957	100	56	stimuli\plant\grass\plant_grass09.jpg            	1	1	1	plant_grass09.jpg    	plant    	6	grass     	17	grass09     	178	alive    	1	still	0	natural 	1	n	0	0    	 	0.0	0	94.1026459001005	94.20263439998959	0.0999884998891502
56107	100	57	stimuli\movArt\train\ma_train09.jpg              	1	1	1	ma_train09.jpg       	movArt   	2	train     	34	train09     	348	not_alive	0	moves	1	artefact	0	n	0	0    	 	0.0	0	94.25263850018379	94.3526272999588	0.0999887997750192
56257	100	58	stimuli\animals2\whale\animal_whale03.jpg        	1	1	1	animal_whale03.jpg   	animals2 	1	whale     	39	whale03     	392	alive    	1	moves	1	natural 	1	n	0	0    	 	0.0	0	94.40263630007391	94.502631300129	0.0999950000550598
56407	100	59	stimuli\nonmovArt\mug\nma_mug05.jpg              	1	1	1	nma_mug05.jpg        	nonmovArt	4	mug       	26	mug05       	264	not_alive	0	still	0	artefact	0	n	0	0    	 	0.0	0	94.5526418001391	94.6526248001028	0.0999829999636858
56557	100	60	stimuli\nonmovArt\clothespeg\nma_clothespeg10.jpg	1	1	1	nma_clothespeg10.jpg 	nonmovArt	4	clothespeg	8	clothespeg10	89	not_alive	0	still	0	artefact	0	n	0	0    	 	0.0	0	94.702637600014	94.8026137000416	0.0999761000275612
56707	100	61	stimuli\movNat\waves\mn_waves08.jpg              	1	1	1	mn_waves08.jpg       	movNat   	3	waves     	38	waves08     	387	not_alive	0	moves	1	natural 	1	n	0	0    	 	0.0	0	94.85269260010679	94.95262250001541	0.0999298999086022
56857	100	62	stimuli\nonmovArt\headphones\nma_headphones07.jpg	1	1	1	nma_headphones07.jpg 	nonmovArt	4	headphones	18	headphones07	186	not_alive	0	still	0	artefact	0	n	0	0    	 	0.0	0	95.00263010011992	95.1026212000288	0.0999910999089479
57007	100	63	stimuli\movNat\river\mn_river07.jpg              	1	1	1	mn_river07.jpg       	movNat   	3	river     	29	river07     	296	not_alive	0	moves	1	natural 	1	n	0	0    	 	0.0	0	95.15262970002371	95.25261840014721	0.0999887001235038
57157	100	64	stimuli\animals2\tiger\animal_tiger07.jpg        	1	1	1	animal_tiger07.jpg   	animals2 	1	tiger     	33	tiger07     	336	alive    	1	moves	1	natural 	1	n	0	0    	 	0.0	0	95.30262860003859	95.402613800019	0.0999851999804377
57307	100	65	stimuli\movNat\hotspring\mn_hotspring10.jpg      	1	1	1	mn_hotspring10.jpg   	movNat   	3	hotspring 	21	hotspring10 	219	not_alive	0	moves	1	natural 	1	n	0	0    	 	0.0	0	95.4526315999683	95.5526148001663	0.0999832001980394
57457	100	66	stimuli\animals2\lemur\animal_lemur10.jpg        	1	1	1	animal_lemur10.jpg   	animals2 	1	lemur     	23	lemur10     	239	alive    	1	moves	1	natural 	1	n	0	0    	 	0.0	0	95.6026257001795	95.70261380006559	0.0999880998861044
57607	100	67	stimuli\plant\cactus\plant_cactus08.jpg          	1	1	1	plant_cactus08.jpg   	plant    	6	cactus    	4	cactus08    	47	alive    	1	still	0	natural 	1	n	0	0    	 	0.0	0	95.75262110005129	95.85261719999839	0.0999960999470204
57757	100	68	stimuli\animals2\bee\animal_bee05.jpg            	1	1	1	animal_bee05.jpg     	animals2 	1	bee       	0	bee05       	4	alive    	1	moves	1	natural 	1	n	0	0    	 	0.0	0	95.9026206000708	96.00271699996661	0.100096399895847
57908	100	69	stimuli\plant2\palmtree\plant_palmtree09.jpg     	1	1	1	plant_palmtree09.jpg 	plant2   	7	palmtree  	27	palmtree09  	278	alive    	1	still	0	natural 	1	n	0	0    	 	0.0	0	96.05352760013191	96.1534068000037	0.0998791998717934
58058	100	70	stimuli\movNat\river\mn_river09.jpg              	1	1	1	mn_river09.jpg       	movNat   	3	river     	29	river09     	298	not_alive	0	moves	1	natural 	1	n	0	0    	 	0.0	0	96.20348970009941	96.3033953001723	0.099905600072816
58208	100	71	stimuli\animals\dolphin\animal_dolphin09.jpg     	1	1	1	animal_dolphin09.jpg 	animals  	0	dolphin   	12	dolphin09   	128	alive    	1	moves	1	natural 	1	n	0	0    	 	0.0	0	96.35352380014959	96.4534130999818	0.0998892998322844
58358	100	72	stimuli\plant2\clover\plant_clover09.jpg         	1	1	1	plant_clover09.jpg   	plant2   	7	clover    	9	clover09    	98	alive    	1	still	0	natural 	1	n	0	0    	 	0.0	0	96.50348980003041	96.6035718000494	0.100082000019029
58508	100	73	stimuli\plant\flower\plant_flower08.jpg          	1	1	1	plant_flower08.jpg   	plant    	6	flower    	16	flower08    	167	alive    	1	still	0	natural 	1	n	0	0    	 	0.0	0	96.65369760012251	96.7534746001475	0.0997770000249147
58658	100	74	stimuli\animals\horse\animal_horse01.jpg         	1	1	1	animal_horse01.jpg   	animals  	0	horse     	20	horse01     	200	alive    	1	moves	1	natural 	1	n	0	0    	 	0.0	0	96.8034950001165	96.90338420006451	0.0998891999479383
58808	100	75	stimuli\plant\grass\plant_grass10.jpg            	1	1	1	plant_grass10.jpg    	plant    	6	grass     	17	grass10     	179	alive    	1	still	0	natural 	1	n	0	0    	 	0.0	0	96.95348570006901	97.05338619998659	0.0999004999175667
58958	100	76	stimuli\movNat\waves\mn_waves07.jpg              	1	1	1	mn_waves07.jpg       	movNat   	3	waves     	38	waves07     	386	not_alive	0	moves	1	natural 	1	n	0	0    	 	0.0	0	97.1034832999576	97.2033904001582	0.09990710020065302
59108	100	77	stimuli\nonmovArt\lock\nma_lock01.jpg            	1	1	1	nma_lock01.jpg       	nonmovArt	4	lock      	24	lock01      	240	not_alive	0	still	0	artefact	0	n	0	0    	 	0.0	0	97.2534784001764	97.353388100164	0.0999096999876201
59258	100	78	stimuli\nonmovNat\rock\nmn_rock08.jpg            	1	1	1	nmn_rock08.jpg       	nonmovNat	5	rock      	30	rock08      	307	not_alive	0	still	0	natural 	1	n	0	0    	 	0.0	0	97.4034800999798	97.50339339999479	0.0999133000150322
59408	100	79	stimuli\animals\eagle\animal_eagle09.jpg         	1	1	1	animal_eagle09.jpg   	animals  	0	eagle     	13	eagle09     	138	alive    	1	moves	1	natural 	1	n	0	0    	 	0.0	0	97.55349220009519	97.6533868000843	0.0998945999890566
64891	100	80	stimuli\plant2\lemontree\plant_lemontree09.jpg   	1	2	1	plant_lemontree09.jpg	plant2   	7	lemontree 	22	lemontree09 	228	alive    	1	still	0	natural 	1	n	0	0    	 	0.0	0	103.03676200006201	103.13671250012699	0.0999505000654608
65041	100	81	stimuli\animals\dog\animal_dog04.jpg             	1	2	1	animal_dog04.jpg     	animals  	0	dog       	11	dog04       	113	alive    	1	moves	1	natural 	1	n	0	0    	 	0.0	0	103.18677860009501	103.28676600009199	0.0999873999971896
65191	100	82	stimuli\plant2\moss\plant_moss08.jpg             	1	2	1	plant_moss08.jpg     	plant2   	7	moss      	25	moss08      	257	alive    	1	still	0	natural 	1	n	0	0    	 	0.0	0	103.33692250005	103.43662620009898	0.099703700048849
65341	100	83	stimuli\plant2\palmtree\plant_palmtree07.jpg     	1	2	1	plant_palmtree07.jpg 	plant2   	7	palmtree  	27	palmtree07  	276	alive    	1	still	0	natural 	1	n	0	0    	 	0.0	0	103.48676450014999	103.58668690011801	0.0999223999679088
65491	100	84	stimuli\animals2\pigeon\animal_pigeon02.jpg      	1	2	1	animal_pigeon02.jpg  	animals2 	1	pigeon    	28	pigeon02    	281	alive    	1	moves	1	natural 	1	n	0	0    	 	0.0	0	103.636745300144	103.736678600078	0.0999332999344915
65641	100	85	stimuli\nonmovArt\mug\nma_mug10.jpg              	1	2	1	nma_mug10.jpg        	nonmovArt	4	mug       	26	mug10       	269	not_alive	0	still	0	artefact	0	n	0	0    	 	0.0	0	103.786764800083	103.88669940014401	0.0999346000608056
65791	100	86	stimuli\movArt\bus\ma_bus10.jpg                  	1	2	1	ma_bus10.jpg         	movArt   	2	bus       	3	bus10       	39	not_alive	0	moves	1	artefact	0	n	0	0    	 	0.0	0	103.93675100011801	104.03665200015499	0.0999010000377893
65941	100	87	stimuli\movArt\train\ma_train04.jpg              	1	2	1	ma_train04.jpg       	movArt   	2	train     	34	train04     	343	not_alive	0	moves	1	artefact	0	n	0	0    	 	0.0	0	104.086764400126	104.186647500144	0.0998831000179052
66091	100	88	stimuli\nonmovArt\headphones\nma_headphones09.jpg	1	2	1	nma_headphones09.jpg 	nonmovArt	4	headphones	18	headphones09	188	not_alive	0	still	0	artefact	0	n	0	0    	 	0.0	0	104.236757599982	104.33666829997699	0.0999106999952346
66241	100	89	stimuli\nonmovNat\shell\nmn_shell08.jpg          	1	2	1	nmn_shell08.jpg      	nonmovNat	5	shell     	32	shell08     	327	not_alive	0	still	0	natural 	1	n	0	0    	 	0.0	0	104.386765900068	104.48667610017598	0.0999102001078426
66391	100	90	stimuli\nonmovNat\sand\nmn_sand06.jpg            	1	2	1	nmn_sand06.jpg       	nonmovNat	5	sand      	31	sand06      	315	not_alive	0	still	0	natural 	1	n	0	0    	 	0.0	0	104.536760000046	104.636672000168	0.0999120001215487
66541	100	91	stimuli\animals2\pigeon\animal_pigeon04.jpg      	1	2	1	animal_pigeon04.jpg  	animals2 	1	pigeon    	28	pigeon04    	283	alive    	1	moves	1	natural 	1	n	0	0    	 	0.0	0	104.68676510010799	104.786659199977	0.099894099868834
66691	100	92	stimuli\movNat\waterfall\mn_waterfall05.jpg      	1	2	1	mn_waterfall05.jpg   	movNat   	3	waterfall 	37	waterfall05 	374	not_alive	0	moves	1	natural 	1	n	0	0    	 	0.0	0	104.836744999979	104.936662500026	0.0999175000470131
66841	100	93	stimuli\animals\dog\animal_dog04.jpg             	1	2	1	animal_dog04.jpg     	animals  	0	dog       	11	dog04       	113	alive    	1	moves	1	natural 	1	n	0	0    	 	0.0	0	104.986758199986	105.086756900186	0.0999987001996487
66991	100	94	stimuli\nonmovNat\rock\nmn_rock03.jpg            	1	2	1	nmn_rock03.jpg       	nonmovNat	5	rock      	30	rock03      	302	not_alive	0	still	0	natural 	1	n	0	0    	 	0.0	0	105.136848200113	105.23667610017598	0.0998279000632464
67141	100	95	stimuli\plant2\clover\plant_clover01.jpg         	1	2	1	plant_clover01.jpg   	plant2   	7	clover    	9	clover01    	90	alive    	1	still	0	natural 	1	n	0	0    	 	0.0	0	105.28674020012801	105.386674799956	0.099934599827975
67291	100	96	stimuli\plant\tree\plant_tree08.jpg              	1	2	1	plant_tree08.jpg     	plant    	6	tree      	35	tree08      	357	alive    	1	still	0	natural 	1	n	0	0    	 	0.0	0	105.436752800131	105.536664200015	0.0999113998841494
67441	100	97	stimuli\nonmovArt\bench\nma_bench04.jpg          	1	2	1	nma_bench04.jpg      	nonmovArt	4	bench     	1	bench04     	13	not_alive	0	still	0	artefact	0	n	0	0    	 	0.0	0	105.586741300067	105.686652100179	0.0999108001124113
67591	100	98	stimuli\nonmovArt\clothespeg\nma_clothespeg09.jpg	1	2	1	nma_clothespeg09.jpg 	nonmovArt	4	clothespeg	8	clothespeg09	88	not_alive	0	still	0	artefact	0	n	0	0    	 	0.0	0	105.736730300123	105.836646700045	0.0999163999222219
67741	100	99	stimuli\movNat\waterfall\mn_waterfall10.jpg      	1	2	1	mn_waterfall10.jpg   	movNat   	3	waterfall 	37	waterfall10 	379	not_alive	0	moves	1	natural 	1	n	0	0    	 	0.0	0	105.88675750000401	105.986639600014	0.0998821000102907
67891	100	100	stimuli\plant\cactus\plant_cactus10.jpg          	1	2	1	plant_cactus10.jpg   	plant    	6	cactus    	4	cactus10    	49	alive    	1	still	0	natural 	1	n	1	0    	 	0.0	0	106.03671090002199	106.136658400064	0.0999475000426173
68041	100	101	stimuli\movArt\train\ma_train02.jpg              	1	2	1	ma_train02.jpg       	movArt   	2	train     	34	train02     	341	not_alive	0	moves	1	artefact	0	n	0	0    	 	0.0	0	106.18672600016	106.28662570007099	0.0998996999114751
68191	100	102	stimuli\movNat\waves\mn_waves09.jpg              	1	2	1	mn_waves09.jpg       	movNat   	3	waves     	38	waves09     	388	not_alive	0	moves	1	natural 	1	n	0	1    	f	0.292039700085297	1	106.33675590017799	106.43662560009399	0.09986969991587101
68341	100	103	stimuli\animals2\lemur\animal_lemur03.jpg        	1	2	1	animal_lemur03.jpg   	animals2 	1	lemur     	23	lemur03     	232	alive    	1	moves	1	natural 	1	n	0	0    	 	0.0	0	106.486768900184	106.586650599958	0.0998816997744143
68491	100	104	stimuli\movNat\fire\mn_fire07.jpg                	1	2	1	mn_fire07.jpg        	movNat   	3	fire      	15	fire07      	156	not_alive	0	moves	1	natural 	1	n	0	0    	 	0.0	0	106.63674039999	106.73664380004601	0.0999034000560641
68641	100	105	stimuli\movArt\helicopter\ma_helicopter10.jpg    	1	2	1	ma_helicopter10.jpg  	movArt   	2	helicopter	19	helicopter10	199	not_alive	0	moves	1	artefact	0	n	0	0    	 	0.0	0	106.786800900009	106.88673750008499	0.0999366000760346
68791	100	106	stimuli\movNat\hotspring\mn_hotspring10.jpg      	1	2	1	mn_hotspring10.jpg   	movNat   	3	hotspring 	21	hotspring10 	219	not_alive	0	moves	1	natural 	1	n	0	0    	 	0.0	0	106.936726800166	107.036628799979	0.0999019998125732
68941	100	107	stimuli\nonmovNat\crystal\nmn_crystal04.jpg      	1	2	1	nmn_crystal04.jpg    	nonmovNat	5	crystal   	10	crystal04   	103	not_alive	0	still	0	natural 	1	n	0	0    	 	0.0	0	107.086739700055	107.186614000006	0.0998742999508977
69091	100	108	stimuli\nonmovArt\clothespeg\nma_clothespeg06.jpg	1	2	1	nma_clothespeg06.jpg 	nonmovArt	4	clothespeg	8	clothespeg06	85	not_alive	0	still	0	artefact	0	n	0	0    	 	0.0	0	107.23673780006399	107.336607899982	0.0998700999189168
69241	100	109	stimuli\plant\flower\plant_flower06.jpg          	1	2	1	plant_flower06.jpg   	plant    	6	flower    	16	flower06    	165	alive    	1	still	0	natural 	1	n	1	0    	 	0.0	0	107.386729000136	107.48662169999399	0.0998926998581737
69391	100	110	stimuli\animals2\lemur\animal_lemur10.jpg        	1	2	1	animal_lemur10.jpg   	animals2 	1	lemur     	23	lemur10     	239	alive    	1	moves	1	natural 	1	n	0	0    	 	0.0	0	107.536721199984	107.636621300131	0.0999001001473516
69541	100	111	stimuli\animals\dolphin\animal_dolphin02.jpg     	1	2	1	animal_dolphin02.jpg 	animals  	0	dolphin   	12	dolphin02   	121	alive    	1	moves	1	natural 	1	n	0	1    	f	0.391991399927065	1	107.686744000064	107.78661489998899	0.0998708999250084
69691	100	112	stimuli\movNat\waterfall\mn_waterfall02.jpg      	1	2	1	mn_waterfall02.jpg   	movNat   	3	waterfall 	37	waterfall02 	371	not_alive	0	moves	1	natural 	1	n	0	0    	 	0.0	0	107.83674010005801	107.93663630005899	0.0998962000012397
69841	100	113	stimuli\movArt\helicopter\ma_helicopter02.jpg    	1	2	1	ma_helicopter02.jpg  	movArt   	2	helicopter	19	helicopter02	191	not_alive	0	moves	1	artefact	0	n	0	0    	 	0.0	0	107.986727599986	108.086641800124	0.0999142001383006
69991	100	114	stimuli\plant2\palmtree\plant_palmtree10.jpg     	1	2	1	plant_palmtree10.jpg 	plant2   	7	palmtree  	27	palmtree10  	279	alive    	1	still	0	natural 	1	n	0	0    	 	0.0	0	108.136714400025	108.236636199988	0.0999217999633401
70141	100	115	stimuli\animals2\whale\animal_whale06.jpg        	1	2	1	animal_whale06.jpg   	animals2 	1	whale     	39	whale06     	395	alive    	1	moves	1	natural 	1	n	0	0    	 	0.0	0	108.2867081	108.38661130005501	0.0999032000545412
70291	100	116	stimuli\nonmovNat\sand\nmn_sand02.jpg            	1	2	1	nmn_sand02.jpg       	nonmovNat	5	sand      	31	sand02      	311	not_alive	0	still	0	natural 	1	n	0	0    	 	0.0	0	108.43673499999599	108.53666360001101	0.0999286000151187
70441	100	117	stimuli\movArt\boat\ma_boat05.jpg                	1	2	1	ma_boat05.jpg        	movArt   	2	boat      	2	boat05      	24	not_alive	0	moves	1	artefact	0	n	0	0    	 	0.0	0	108.58679680014	108.686712000053	0.0999151999130845
70591	100	118	stimuli\plant\vine\plant_vine09.jpg              	1	2	1	plant_vine09.jpg     	plant    	6	vine      	36	vine09      	368	alive    	1	still	0	natural 	1	n	0	0    	 	0.0	0	108.736732100137	108.836608200101	0.0998760999646037
70741	100	119	stimuli\nonmovArt\headphones\nma_headphones04.jpg	1	2	1	nma_headphones04.jpg 	nonmovArt	4	headphones	18	headphones04	183	not_alive	0	still	0	artefact	0	n	0	0    	 	0.0	0	108.886717600049	108.986607100116	0.09988950006663799
70891	100	120	stimuli\movNat\river\mn_river08.jpg              	1	2	1	mn_river08.jpg       	movNat   	3	river     	29	river08     	297	not_alive	0	moves	1	natural 	1	n	0	0    	 	0.0	0	109.036679600133	109.13663029996701	0.09995069983415301
71041	100	121	stimuli\plant\tree\plant_tree09.jpg              	1	2	1	plant_tree09.jpg     	plant    	6	tree      	35	tree09      	358	alive    	1	still	0	natural 	1	n	0	0    	 	0.0	0	109.186728400178	109.28663850016899	0.0999100999906659
71191	100	122	stimuli\animals\dog\animal_dog01.jpg             	1	2	1	animal_dog01.jpg     	animals  	0	dog       	11	dog01       	110	alive    	1	moves	1	natural 	1	n	0	0    	 	0.0	0	109.336696800077	109.43659309996299	0.0998962998855859
71341	100	123	stimuli\plant2\palmtree\plant_palmtree09.jpg     	1	2	1	plant_palmtree09.jpg 	plant2   	7	palmtree  	27	palmtree09  	278	alive    	1	still	0	natural 	1	n	0	0    	 	0.0	0	109.486720300047	109.58660410018601	0.0998838001396507
71491	100	124	stimuli\animals2\whale\animal_whale05.jpg        	1	2	1	animal_whale05.jpg   	animals2 	1	whale     	39	whale05     	394	alive    	1	moves	1	natural 	1	n	0	0    	 	0.0	0	109.636708500097	109.736614400055	0.099905899958685
71641	100	125	stimuli\animals2\pigeon\animal_pigeon05.jpg      	1	2	1	animal_pigeon05.jpg  	animals2 	1	pigeon    	28	pigeon05    	284	alive    	1	moves	1	natural 	1	n	0	0    	 	0.0	0	109.78670640010401	109.886611400172	0.0999050000682473
71791	100	126	stimuli\animals\dolphin\animal_dolphin09.jpg     	1	2	1	animal_dolphin09.jpg 	animals  	0	dolphin   	12	dolphin09   	128	alive    	1	moves	1	natural 	1	n	0	0    	 	0.0	0	109.936715200078	110.03660210012501	0.0998869000468403
71941	100	127	stimuli\animals2\lemur\animal_lemur03.jpg        	1	2	1	animal_lemur03.jpg   	animals2 	1	lemur     	23	lemur03     	232	alive    	1	moves	1	natural 	1	n	0	0    	 	0.0	0	110.08671370008999	110.18658930016701	0.0998756000772118
72091	100	128	stimuli\nonmovArt\bench\nma_bench04.jpg          	1	2	1	nma_bench04.jpg      	nonmovArt	4	bench     	1	bench04     	13	not_alive	0	still	0	artefact	0	n	0	0    	 	0.0	0	110.236693399958	110.336601700168	0.0999083002097904
72241	100	129	stimuli\animals\horse\animal_horse07.jpg         	1	2	1	animal_horse07.jpg   	animals  	0	horse     	20	horse07     	206	alive    	1	moves	1	natural 	1	n	0	0    	 	0.0	0	110.38677360001002	110.486670800019	0.0998972000088542
72391	100	130	stimuli\plant2\lemontree\plant_lemontree05.jpg   	1	2	1	plant_lemontree05.jpg	plant2   	7	lemontree 	22	lemontree05 	224	alive    	1	still	0	natural 	1	n	0	0    	 	0.0	0	110.53671680018299	110.636586100096	0.0998692999128252
72541	100	131	stimuli\animals\horse\animal_horse06.jpg         	1	2	1	animal_horse06.jpg   	animals  	0	horse     	20	horse06     	205	alive    	1	moves	1	natural 	1	n	0	0    	 	0.0	0	110.686704500113	110.78660820005501	0.0999036999419331
72691	100	132	stimuli\animals2\bee\animal_bee01.jpg            	1	2	1	animal_bee01.jpg     	animals2 	1	bee       	0	bee01       	0	alive    	1	moves	1	natural 	1	n	0	0    	 	0.0	0	110.836698800093	110.936589400051	0.0998905999585986
72841	100	133	stimuli\movArt\boat\ma_boat04.jpg                	1	2	1	ma_boat04.jpg        	movArt   	2	boat      	2	boat04      	23	not_alive	0	moves	1	artefact	0	n	0	0    	 	0.0	0	110.986629700055	111.086573800072	0.099944100016728
72991	100	134	stimuli\plant2\lemontree\plant_lemontree07.jpg   	1	2	1	plant_lemontree07.jpg	plant2   	7	lemontree 	22	lemontree07 	226	alive    	1	still	0	natural 	1	n	0	0    	 	0.0	0	111.136677799979	111.236590899993	0.0999131000135094
73141	100	135	stimuli\nonmovArt\lock\nma_lock08.jpg            	1	2	1	nma_lock08.jpg       	nonmovArt	4	lock      	24	lock08      	247	not_alive	0	still	0	artefact	0	n	0	0    	 	0.0	0	111.28668750007601	111.38658430008199	0.0998968000058084
73291	100	136	stimuli\movNat\hotspring\mn_hotspring04.jpg      	1	2	1	mn_hotspring04.jpg   	movNat   	3	hotspring 	21	hotspring04 	213	not_alive	0	moves	1	natural 	1	n	0	0    	 	0.0	0	111.43669680017	111.536617300007	0.099920499837026
73441	100	137	stimuli\animals\cat\animal_cat01.jpg             	1	2	1	animal_cat01.jpg     	animals  	0	cat       	6	cat01       	60	alive    	1	moves	1	natural 	1	n	0	0    	 	0.0	0	111.58666140004101	111.686612399993	0.0999509999528527
73591	100	138	stimuli\animals\dolphin\animal_dolphin05.jpg     	1	2	1	animal_dolphin05.jpg 	animals  	0	dolphin   	12	dolphin05   	124	alive    	1	moves	1	natural 	1	n	0	0    	 	0.0	0	111.736676800065	111.83657210017599	0.09989530011080199
73741	100	139	stimuli\plant\grass\plant_grass02.jpg            	1	2	1	plant_grass02.jpg    	plant    	6	grass     	17	grass02     	171	alive    	1	still	0	natural 	1	n	0	0    	 	0.0	0	111.886696400121	111.986591299996	0.0998948998749256
73891	100	140	stimuli\nonmovNat\rock\nmn_rock02.jpg            	1	2	1	nmn_rock02.jpg       	nonmovNat	5	rock      	30	rock02      	301	not_alive	0	still	0	natural 	1	n	0	0    	 	0.0	0	112.036685200175	112.136668000137	0.0999827999621629
74041	100	141	stimuli\plant2\palmtree\plant_palmtree09.jpg     	1	2	1	plant_palmtree09.jpg 	plant2   	7	palmtree  	27	palmtree09  	278	alive    	1	still	0	natural 	1	n	0	0    	 	0.0	0	112.186882000184	112.286590000149	0.09970799996517599
74191	100	142	stimuli\animals\eagle\animal_eagle04.jpg         	1	2	1	animal_eagle04.jpg   	animals  	0	eagle     	13	eagle04     	133	alive    	1	moves	1	natural 	1	n	0	0    	 	0.0	0	112.33666240004801	112.43658620002701	0.0999237999785691
74341	100	143	stimuli\movArt\boat\ma_boat04.jpg                	1	2	1	ma_boat04.jpg        	movArt   	2	boat      	2	boat04      	23	not_alive	0	moves	1	artefact	0	n	0	0    	 	0.0	0	112.486634199973	112.58657529996701	0.0999410999938845
74491	100	144	stimuli\movArt\train\ma_train10.jpg              	1	2	1	ma_train10.jpg       	movArt   	2	train     	34	train10     	349	not_alive	0	moves	1	artefact	0	n	0	0    	 	0.0	0	112.63667060015699	112.736590699991	0.0999200998339802
74641	100	145	stimuli\nonmovNat\shell\nmn_shell03.jpg          	1	2	1	nmn_shell03.jpg      	nonmovNat	5	shell     	32	shell03     	322	not_alive	0	still	0	natural 	1	n	0	0    	 	0.0	0	112.78667700011299	112.886571800103	0.0998947999905794
74791	100	146	stimuli\movArt\car\ma_car02.jpg                  	1	2	1	ma_car02.jpg         	movArt   	2	car       	5	car02       	51	not_alive	0	moves	1	artefact	0	n	0	0    	 	0.0	0	112.936672700103	113.036587200128	0.0999145000241696
74941	100	147	stimuli\nonmovNat\sand\nmn_sand03.jpg            	1	2	1	nmn_sand03.jpg       	nonmovNat	5	sand      	31	sand03      	312	not_alive	0	still	0	natural 	1	n	0	0    	 	0.0	0	113.08669040002898	113.186580399983	0.0998899999540299
75091	100	148	stimuli\nonmovArt\headphones\nma_headphones08.jpg	1	2	1	nma_headphones08.jpg 	nonmovArt	4	headphones	18	headphones08	187	not_alive	0	still	0	artefact	0	n	0	0    	 	0.0	0	113.23665670002799	113.33656960004	0.0999129000119865
75241	100	149	stimuli\animals2\lemur\animal_lemur06.jpg        	1	2	1	animal_lemur06.jpg   	animals2 	1	lemur     	23	lemur06     	235	alive    	1	moves	1	natural 	1	n	0	0    	 	0.0	0	113.38666129997	113.486585000064	0.09992370009422301
75391	100	150	stimuli\nonmovNat\cliff\nmn_cliff09.jpg          	1	2	1	nmn_cliff09.jpg      	nonmovNat	5	cliff     	7	cliff09     	78	not_alive	0	still	0	natural 	1	n	0	0    	 	0.0	0	113.536669300171	113.63656420004601	0.0998948998749256
75541	100	151	stimuli\movNat\waves\mn_waves05.jpg              	1	2	1	mn_waves05.jpg       	movNat   	3	waves     	38	waves05     	384	not_alive	0	moves	1	natural 	1	n	0	0    	 	0.0	0	113.686672700103	113.78657890018101	0.0999062000773847
75691	100	152	stimuli\movArt\train\ma_train06.jpg              	1	2	1	ma_train06.jpg       	movArt   	2	train     	34	train06     	345	not_alive	0	moves	1	artefact	0	n	0	0    	 	0.0	0	113.836695000064	113.936669599963	0.0999745998997241
75841	100	153	stimuli\plant\cactus\plant_cactus01.jpg          	1	2	1	plant_cactus01.jpg   	plant    	6	cactus    	4	cactus01    	40	alive    	1	still	0	natural 	1	n	0	0    	 	0.0	0	113.986777100014	114.086663500173	0.0998864001594484
75991	100	154	stimuli\animals2\bee\animal_bee04.jpg            	1	2	1	animal_bee04.jpg     	animals2 	1	bee       	0	bee04       	3	alive    	1	moves	1	natural 	1	n	0	0    	 	0.0	0	114.13666690001301	114.23658580007	0.0999189000576734
76141	100	155	stimuli\movArt\helicopter\ma_helicopter06.jpg    	1	2	1	ma_helicopter06.jpg  	movArt   	2	helicopter	19	helicopter06	195	not_alive	0	moves	1	artefact	0	n	0	0    	 	0.0	0	114.286660500104	114.38655350008001	0.0998929999768734
76291	100	156	stimuli\movNat\hotspring\mn_hotspring05.jpg      	1	2	1	mn_hotspring05.jpg   	movNat   	3	hotspring 	21	hotspring05 	214	not_alive	0	moves	1	natural 	1	n	0	0    	 	0.0	0	114.436663900036	114.53657270013399	0.0999088000971824
76441	100	157	stimuli\plant2\fern\plant_fern07.jpg             	1	2	1	plant_fern07.jpg     	plant2   	7	fern      	14	fern07      	146	alive    	1	still	0	natural 	1	n	0	0    	 	0.0	0	114.58666390017599	114.686546000186	0.0998821000102907
76591	100	158	stimuli\nonmovNat\shell\nmn_shell07.jpg          	1	2	1	nmn_shell07.jpg      	nonmovNat	5	shell     	32	shell07     	326	not_alive	0	still	0	natural 	1	n	0	0    	 	0.0	0	114.736625900026	114.83654700010099	0.0999211000744253
76741	100	159	stimuli\plant2\clover\plant_clover05.jpg         	1	2	1	plant_clover05.jpg   	plant2   	7	clover    	9	clover05    	94	alive    	1	still	0	natural 	1	n	0	0    	 	0.0	0	114.88664390007	114.98654700000799	0.0999030999373644
81408	100	160	stimuli\nonmovNat\rock\nmn_rock10.jpg            	1	3	1	nmn_rock10.jpg       	nonmovNat	5	rock      	30	rock10      	309	not_alive	0	still	0	natural 	1	n	0	0    	 	0.0	0	119.553283100016	119.653168100165	0.0998850001487881
81558	100	161	stimuli\nonmovArt\headphones\nma_headphones02.jpg	1	3	1	nma_headphones02.jpg 	nonmovArt	4	headphones	18	headphones02	181	not_alive	0	still	0	artefact	0	n	0	0    	 	0.0	0	119.703242999967	119.803198100068	0.0999551001004874
81708	100	162	stimuli\nonmovNat\sand\nmn_sand01.jpg            	1	3	1	nmn_sand01.jpg       	nonmovNat	5	sand      	31	sand01      	310	not_alive	0	still	0	natural 	1	n	0	0    	 	0.0	0	119.853363699978	119.95330120017799	0.09993750019930302
81858	100	163	stimuli\plant2\moss\plant_moss07.jpg             	1	3	1	plant_moss07.jpg     	plant2   	7	moss      	25	moss07      	256	alive    	1	still	0	natural 	1	n	0	0    	 	0.0	0	120.003358300077	120.103164999979	0.0998066999018192
82008	100	164	stimuli\movNat\fire\mn_fire07.jpg                	1	3	1	mn_fire07.jpg        	movNat   	3	fire      	15	fire07      	156	not_alive	0	moves	1	natural 	1	n	0	0    	 	0.0	0	120.153259800049	120.25314870011101	0.0998889000620693
82158	100	165	stimuli\nonmovArt\lock\nma_lock01.jpg            	1	3	1	nma_lock01.jpg       	nonmovArt	4	lock      	24	lock01      	240	not_alive	0	still	0	artefact	0	n	0	0    	 	0.0	0	120.30324100004499	120.40317680011499	0.09993580006994301
82308	100	166	stimuli\movNat\fire\mn_fire08.jpg                	1	3	1	mn_fire08.jpg        	movNat   	3	fire      	15	fire08      	157	not_alive	0	moves	1	natural 	1	n	0	0    	 	0.0	0	120.453241700074	120.553187400103	0.0999457000289112
82458	100	167	stimuli\nonmovNat\sand\nmn_sand05.jpg            	1	3	1	nmn_sand05.jpg       	nonmovNat	5	sand      	31	sand05      	314	not_alive	0	still	0	natural 	1	n	0	0    	 	0.0	0	120.60324340011002	120.703155399999	0.0999119998887181
82608	100	168	stimuli\nonmovArt\bench\nma_bench01.jpg          	1	3	1	nma_bench01.jpg      	nonmovArt	4	bench     	1	bench01     	10	not_alive	0	still	0	artefact	0	n	0	0    	 	0.0	0	120.753262000158	120.853183900006	0.0999218998476862
82758	100	169	stimuli\movNat\river\mn_river06.jpg              	1	3	1	mn_river06.jpg       	movNat   	3	river     	29	river06     	295	not_alive	0	moves	1	natural 	1	n	0	0    	 	0.0	0	120.903235000093	121.003151000012	0.0999159999191761
82908	100	170	stimuli\movArt\bus\ma_bus06.jpg                  	1	3	1	ma_bus06.jpg         	movArt   	2	bus       	3	bus06       	35	not_alive	0	moves	1	artefact	0	n	0	0    	 	0.0	0	121.05323830014099	121.15315430006001	0.0999159999191761
83058	100	171	stimuli\nonmovArt\mug\nma_mug03.jpg              	1	3	1	nma_mug03.jpg        	nonmovArt	4	mug       	26	mug03       	262	not_alive	0	still	0	artefact	0	n	0	0    	 	0.0	0	121.203269400168	121.30314690014299	0.09987749997526402
83208	100	172	stimuli\animals2\lemur\animal_lemur06.jpg        	1	3	1	animal_lemur06.jpg   	animals2 	1	lemur     	23	lemur06     	235	alive    	1	moves	1	natural 	1	n	0	0    	 	0.0	0	121.353236300172	121.45313589996701	0.0998995997942984
83358	100	173	stimuli\animals2\tiger\animal_tiger09.jpg        	1	3	1	animal_tiger09.jpg   	animals2 	1	tiger     	33	tiger09     	338	alive    	1	moves	1	natural 	1	n	0	0    	 	0.0	0	121.50325289997299	121.603104599984	0.0998517000116408
83508	100	174	stimuli\animals\dog\animal_dog01.jpg             	1	3	1	animal_dog01.jpg     	animals  	0	dog       	11	dog01       	110	alive    	1	moves	1	natural 	1	n	0	0    	 	0.0	0	121.65333520015699	121.75320410006701	0.0998688999097794
83658	100	175	stimuli\plant\cactus\plant_cactus03.jpg          	1	3	1	plant_cactus03.jpg   	plant    	6	cactus    	4	cactus03    	42	alive    	1	still	0	natural 	1	n	0	0    	 	0.0	0	121.803307899972	121.90313550015	0.0998276001773774
83808	100	176	stimuli\nonmovNat\crystal\nmn_crystal02.jpg      	1	3	1	nmn_crystal02.jpg    	nonmovNat	5	crystal   	10	crystal02   	101	not_alive	0	still	0	natural 	1	n	0	0    	 	0.0	0	121.953224000055	122.053165700054	0.0999416999984532
83958	100	177	stimuli\animals\dog\animal_dog03.jpg             	1	3	1	animal_dog03.jpg     	animals  	0	dog       	11	dog03       	112	alive    	1	moves	1	natural 	1	n	0	0    	 	0.0	0	122.10323160002	122.203132700175	0.0999011001549661
84108	100	178	stimuli\plant\flower\plant_flower08.jpg          	1	3	1	plant_flower08.jpg   	plant    	6	flower    	16	flower08    	167	alive    	1	still	0	natural 	1	n	0	0    	 	0.0	0	122.25324320001499	122.353145200061	0.0999020000454038
84258	100	179	stimuli\animals2\tiger\animal_tiger07.jpg        	1	3	1	animal_tiger07.jpg   	animals2 	1	tiger     	33	tiger07     	336	alive    	1	moves	1	natural 	1	n	0	0    	 	0.0	0	122.403328699991	122.503158300184	0.0998296001926064
84408	100	180	stimuli\movArt\train\ma_train09.jpg              	1	3	1	ma_train09.jpg       	movArt   	2	train     	34	train09     	348	not_alive	0	moves	1	artefact	0	n	0	0    	 	0.0	0	122.553226700053	122.653143000091	0.0999163000378757
84558	100	181	stimuli\plant\vine\plant_vine06.jpg              	1	3	1	plant_vine06.jpg     	plant    	6	vine      	36	vine06      	365	alive    	1	still	0	natural 	1	n	0	0    	 	0.0	0	122.70346830016899	122.80313380016001	0.0996654999908059
84708	100	182	stimuli\animals\horse\animal_horse02.jpg         	1	3	1	animal_horse02.jpg   	animals  	0	horse     	20	horse02     	201	alive    	1	moves	1	natural 	1	n	0	0    	 	0.0	0	122.853210499976	122.95316760009199	0.0999571001157164
84858	100	183	stimuli\plant2\palmtree\plant_palmtree05.jpg     	1	3	1	plant_palmtree05.jpg 	plant2   	7	palmtree  	27	palmtree05  	274	alive    	1	still	0	natural 	1	n	0	0    	 	0.0	0	123.00321600004101	123.10314430017	0.0999283001292496
85008	100	184	stimuli\animals2\bee\animal_bee03.jpg            	1	3	1	animal_bee03.jpg     	animals2 	1	bee       	0	bee03       	2	alive    	1	moves	1	natural 	1	n	0	0    	 	0.0	0	123.15320609998899	123.253140500048	0.0999344000592827
85158	100	185	stimuli\movArt\bus\ma_bus09.jpg                  	1	3	1	ma_bus09.jpg         	movArt   	2	bus       	3	bus09       	38	not_alive	0	moves	1	artefact	0	n	1	0    	 	0.0	0	123.30325100012101	123.40325720002899	0.100006199907511
85308	100	186	stimuli\plant\cactus\plant_cactus06.jpg          	1	3	1	plant_cactus06.jpg   	plant    	6	cactus    	4	cactus06    	45	alive    	1	still	0	natural 	1	n	0	0    	 	0.0	0	123.45342970010799	123.55324300006001	0.0998132999520748
85458	100	187	stimuli\plant2\lemontree\plant_lemontree05.jpg   	1	3	1	plant_lemontree05.jpg	plant2   	7	lemontree 	22	lemontree05 	224	alive    	1	still	0	natural 	1	n	0	1    	f	0.306399299995974	1	123.603221300058	123.703124700114	0.0999034000560641
85608	100	188	stimuli\animals\eagle\animal_eagle02.jpg         	1	3	1	animal_eagle02.jpg   	animals  	0	eagle     	13	eagle02     	131	alive    	1	moves	1	natural 	1	n	0	0    	 	0.0	0	123.75322500011002	123.85314580006501	0.0999207999557256
85758	100	189	stimuli\plant2\fern\plant_fern04.jpg             	1	3	1	plant_fern04.jpg     	plant2   	7	fern      	14	fern04      	143	alive    	1	still	0	natural 	1	n	0	0    	 	0.0	0	123.903224400012	124.003110900056	0.0998865000437945
85908	100	190	stimuli\animals\eagle\animal_eagle06.jpg         	1	3	1	animal_eagle06.jpg   	animals  	0	eagle     	13	eagle06     	135	alive    	1	moves	1	natural 	1	n	0	0    	 	0.0	0	124.053237300133	124.15311880013901	0.09988150000572199
86058	100	191	stimuli\movArt\boat\ma_boat07.jpg                	1	3	1	ma_boat07.jpg        	movArt   	2	boat      	2	boat07      	26	not_alive	0	moves	1	artefact	0	n	0	0    	 	0.0	0	124.203195899958	124.30310450005301	0.0999086000956595
86208	100	192	stimuli\nonmovNat\crystal\nmn_crystal08.jpg      	1	3	1	nmn_crystal08.jpg    	nonmovNat	5	crystal   	10	crystal08   	107	not_alive	0	still	0	natural 	1	n	1	0    	 	0.0	0	124.353226300096	124.453112700023	0.0998863999266177
86358	100	193	stimuli\plant\flower\plant_flower09.jpg          	1	3	1	plant_flower09.jpg   	plant    	6	flower    	16	flower09    	168	alive    	1	still	0	natural 	1	n	0	0    	 	0.0	0	124.503212800017	124.603110200027	0.0998974000103771
86508	100	194	stimuli\movArt\car\ma_car02.jpg                  	1	3	1	ma_car02.jpg         	movArt   	2	car       	5	car02       	51	not_alive	0	moves	1	artefact	0	n	0	1    	f	0.303430599858984	1	124.653210900025	124.753099899972	0.0998889999464154
86658	100	195	stimuli\movNat\river\mn_river05.jpg              	1	3	1	mn_river05.jpg       	movNat   	3	river     	29	river05     	294	not_alive	0	moves	1	natural 	1	n	0	0    	 	0.0	0	124.80321260006201	124.903104400029	0.0998917999677359
86808	100	196	stimuli\nonmovArt\clothespeg\nma_clothespeg05.jpg	1	3	1	nma_clothespeg05.jpg 	nonmovArt	4	clothespeg	8	clothespeg05	84	not_alive	0	still	0	artefact	0	n	0	0    	 	0.0	0	124.953215599991	125.053106999956	0.0998913999646902
86958	100	197	stimuli\nonmovNat\cliff\nmn_cliff06.jpg          	1	3	1	nmn_cliff06.jpg      	nonmovNat	5	cliff     	7	cliff06     	75	not_alive	0	still	0	natural 	1	n	0	0    	 	0.0	0	125.10326800006399	125.20319749997	0.0999294999055564
87108	100	198	stimuli\nonmovNat\crystal\nmn_crystal02.jpg      	1	3	1	nmn_crystal02.jpg    	nonmovNat	5	crystal   	10	crystal02   	101	not_alive	0	still	0	natural 	1	n	0	0    	 	0.0	0	125.253416500054	125.353172800038	0.09975629998371001
87258	100	199	stimuli\nonmovArt\clothespeg\nma_clothespeg03.jpg	1	3	1	nma_clothespeg03.jpg 	nonmovArt	4	clothespeg	8	clothespeg03	82	not_alive	0	still	0	artefact	0	n	0	0    	 	0.0	0	125.40320100006599	125.503108500037	0.0999074999708682
87408	100	200	stimuli\nonmovArt\mug\nma_mug06.jpg              	1	3	1	nma_mug06.jpg        	nonmovArt	4	mug       	26	mug06       	265	not_alive	0	still	0	artefact	0	n	0	0    	 	0.0	0	125.553189400118	125.653110299958	0.0999208998400718
87558	100	201	stimuli\animals\dolphin\animal_dolphin10.jpg     	1	3	1	animal_dolphin10.jpg 	animals  	0	dolphin   	12	dolphin10   	129	alive    	1	moves	1	natural 	1	n	0	0    	 	0.0	0	125.70319880009599	125.80310100014299	0.0999022000469267
87708	100	202	stimuli\plant2\fern\plant_fern01.jpg             	1	3	1	plant_fern01.jpg     	plant2   	7	fern      	14	fern01      	140	alive    	1	still	0	natural 	1	n	0	0    	 	0.0	0	125.85320740006901	125.953139699996	0.09993229992687701
87858	100	203	stimuli\plant\grass\plant_grass04.jpg            	1	3	1	plant_grass04.jpg    	plant    	6	grass     	17	grass04     	173	alive    	1	still	0	natural 	1	n	0	0    	 	0.0	0	126.003198100021	126.103114400059	0.0999163000378757
88008	100	204	stimuli\plant\grass\plant_grass03.jpg            	1	3	1	plant_grass03.jpg    	plant    	6	grass     	17	grass03     	172	alive    	1	still	0	natural 	1	n	0	0    	 	0.0	0	126.153241500026	126.253088700119	0.0998472000937908
88158	100	205	stimuli\nonmovNat\shell\nmn_shell07.jpg          	1	3	1	nmn_shell07.jpg      	nonmovNat	5	shell     	32	shell07     	326	not_alive	0	still	0	natural 	1	n	0	0    	 	0.0	0	126.30318380007499	126.403122400166	0.0999386000912636
88308	100	206	stimuli\plant2\clover\plant_clover06.jpg         	1	3	1	plant_clover06.jpg   	plant2   	7	clover    	9	clover06    	95	alive    	1	still	0	natural 	1	n	0	0    	 	0.0	0	126.453188100131	126.553106600186	0.0999185000546276
88458	100	207	stimuli\nonmovArt\clothespeg\nma_clothespeg02.jpg	1	3	1	nma_clothespeg02.jpg 	nonmovArt	4	clothespeg	8	clothespeg02	81	not_alive	0	still	0	artefact	0	n	0	0    	 	0.0	0	126.60318640014201	126.703112400137	0.099925999995321
88608	100	208	stimuli\movNat\waterfall\mn_waterfall06.jpg      	1	3	1	mn_waterfall06.jpg   	movNat   	3	waterfall 	37	waterfall06 	375	not_alive	0	moves	1	natural 	1	n	0	0    	 	0.0	0	126.75319930003	126.85311490017901	0.0999156001489609
88758	100	209	stimuli\movNat\waterfall\mn_waterfall05.jpg      	1	3	1	mn_waterfall05.jpg   	movNat   	3	waterfall 	37	waterfall05 	374	not_alive	0	moves	1	natural 	1	n	0	0    	 	0.0	0	126.90321020013701	127.003189400071	0.0999791999347508
88908	100	210	stimuli\animals2\tiger\animal_tiger10.jpg        	1	3	1	animal_tiger10.jpg   	animals2 	1	tiger     	33	tiger10     	339	alive    	1	moves	1	natural 	1	n	0	0    	 	0.0	0	127.05338110006399	127.153090400156	0.0997093000914901
89058	100	211	stimuli\nonmovNat\rock\nmn_rock10.jpg            	1	3	1	nmn_rock10.jpg       	nonmovNat	5	rock      	30	rock10      	309	not_alive	0	still	0	natural 	1	n	0	0    	 	0.0	0	127.203203300014	127.30308910016899	0.0998858001548796
89208	100	212	stimuli\plant\vine\plant_vine01.jpg              	1	3	1	plant_vine01.jpg     	plant    	6	vine      	36	vine01      	360	alive    	1	still	0	natural 	1	n	1	0    	 	0.0	0	127.353184700012	127.453105400084	0.0999207000713795
89358	100	213	stimuli\nonmovNat\cliff\nmn_cliff09.jpg          	1	3	1	nmn_cliff09.jpg      	nonmovNat	5	cliff     	7	cliff09     	78	not_alive	0	still	0	natural 	1	n	1	0    	 	0.0	0	127.503187300172	127.603081500158	0.0998941999860108
89508	100	214	stimuli\animals2\whale\animal_whale07.jpg        	1	3	1	animal_whale07.jpg   	animals2 	1	whale     	39	whale07     	396	alive    	1	moves	1	natural 	1	n	0	1    	f	0.241960000013933	1	127.65316880005399	127.753090400016	0.0999215999618172
89658	100	215	stimuli\nonmovArt\headphones\nma_headphones06.jpg	1	3	1	nma_headphones06.jpg 	nonmovArt	4	headphones	18	headphones06	185	not_alive	0	still	0	artefact	0	n	0	0    	 	0.0	0	127.803175900131	127.903114600107	0.0999386999756097
89808	100	216	stimuli\movArt\car\ma_car09.jpg                  	1	3	1	ma_car09.jpg         	movArt   	2	car       	5	car09       	58	not_alive	0	moves	1	artefact	0	n	0	0    	 	0.0	0	127.95319100003701	128.053082100116	0.0998911000788211
89958	100	217	stimuli\plant2\moss\plant_moss06.jpg             	1	3	1	plant_moss06.jpg     	plant2   	7	moss      	25	moss06      	255	alive    	1	still	0	natural 	1	n	0	0    	 	0.0	0	128.10320290015102	128.203066400019	0.0998634998686611
90108	100	218	stimuli\plant\tree\plant_tree01.jpg              	1	3	1	plant_tree01.jpg     	plant    	6	tree      	35	tree01      	350	alive    	1	still	0	natural 	1	n	0	0    	 	0.0	0	128.253176100086	128.35308980010402	0.09991370001807799
90258	100	219	stimuli\movNat\waves\mn_waves01.jpg              	1	3	1	mn_waves01.jpg       	movNat   	3	waves     	38	waves01     	380	not_alive	0	moves	1	natural 	1	n	0	0    	 	0.0	0	128.403183300048	128.503069899976	0.0998865999281406
90408	100	220	stimuli\movArt\helicopter\ma_helicopter01.jpg    	1	3	1	ma_helicopter01.jpg  	movArt   	2	helicopter	19	helicopter01	190	not_alive	0	moves	1	artefact	0	n	0	0    	 	0.0	0	128.55319190001998	128.653143699979	0.0999517999589443
90558	100	221	stimuli\animals\cat\animal_cat01.jpg             	1	3	1	animal_cat01.jpg     	animals  	0	cat       	6	cat01       	60	alive    	1	moves	1	natural 	1	n	0	0    	 	0.0	0	128.70315780001698	128.80307959998	0.0999217999633401
90708	100	222	stimuli\movNat\waterfall\mn_waterfall05.jpg      	1	3	1	mn_waterfall05.jpg   	movNat   	3	waterfall 	37	waterfall05 	374	not_alive	0	moves	1	natural 	1	n	0	0    	 	0.0	0	128.853184400126	128.95309219998302	0.0999077998567372
90858	100	223	stimuli\plant2\clover\plant_clover03.jpg         	1	3	1	plant_clover03.jpg   	plant2   	7	clover    	9	clover03    	92	alive    	1	still	0	natural 	1	n	0	0    	 	0.0	0	129.003194099991	129.103112900164	0.0999188001733273
91008	100	224	stimuli\movArt\helicopter\ma_helicopter09.jpg    	1	3	1	ma_helicopter09.jpg  	movArt   	2	helicopter	19	helicopter09	198	not_alive	0	moves	1	artefact	0	n	0	0    	 	0.0	0	129.153188599972	129.25309160002502	0.0999030000530183
91158	100	225	stimuli\nonmovArt\mug\nma_mug04.jpg              	1	3	1	nma_mug04.jpg        	nonmovArt	4	mug       	26	mug04       	263	not_alive	0	still	0	artefact	0	n	0	0    	 	0.0	0	129.303188299993	129.403163200011	0.0999749000184238
91308	100	226	stimuli\plant\flower\plant_flower08.jpg          	1	3	1	plant_flower08.jpg   	plant    	6	flower    	16	flower08    	167	alive    	1	still	0	natural 	1	n	0	0    	 	0.0	0	129.453369500116	129.553062099963	0.0996925998479128
91458	100	227	stimuli\movArt\bus\ma_bus04.jpg                  	1	3	1	ma_bus04.jpg         	movArt   	2	bus       	3	bus04       	33	not_alive	0	moves	1	artefact	0	n	0	0    	 	0.0	0	129.603149699979	129.70309219998302	0.0999425000045448
91608	100	228	stimuli\movNat\waves\mn_waves09.jpg              	1	3	1	mn_waves09.jpg       	movNat   	3	waves     	38	waves09     	388	not_alive	0	moves	1	natural 	1	n	0	0    	 	0.0	0	129.75315610016702	129.85309180011998	0.0999356999527663
91758	100	229	stimuli\animals2\whale\animal_whale10.jpg        	1	3	1	animal_whale10.jpg   	animals2 	1	whale     	39	whale10     	399	alive    	1	moves	1	natural 	1	n	0	0    	 	0.0	0	129.903178000124	130.003071000101	0.0998929999768734
91908	100	230	stimuli\animals2\pigeon\animal_pigeon02.jpg      	1	3	1	animal_pigeon02.jpg  	animals2 	1	pigeon    	28	pigeon02    	281	alive    	1	moves	1	natural 	1	n	0	0    	 	0.0	0	130.053167100064	130.15308720013098	0.0999201000668108
92058	100	231	stimuli\plant\tree\plant_tree09.jpg              	1	3	1	plant_tree09.jpg     	plant    	6	tree      	35	tree09      	358	alive    	1	still	0	natural 	1	n	0	0    	 	0.0	0	130.203173800139	130.303067900008	0.099894099868834
92208	100	232	stimuli\movNat\fire\mn_fire09.jpg                	1	3	1	mn_fire09.jpg        	movNat   	3	fire      	15	fire09      	158	not_alive	0	moves	1	natural 	1	n	0	0    	 	0.0	0	130.35315960017	130.453076400096	0.0999167999252677
92358	100	233	stimuli\movNat\hotspring\mn_hotspring08.jpg      	1	3	1	mn_hotspring08.jpg   	movNat   	3	hotspring 	21	hotspring08 	217	not_alive	0	moves	1	natural 	1	n	0	0    	 	0.0	0	130.503145999974	130.60305800009502	0.0999120001215487
92508	100	234	stimuli\plant\vine\plant_vine10.jpg              	1	3	1	plant_vine10.jpg     	plant    	6	vine      	36	vine10      	369	alive    	1	still	0	natural 	1	n	0	0    	 	0.0	0	130.653159100097	130.753074000124	0.0999149000272154
92658	100	235	stimuli\plant2\moss\plant_moss06.jpg             	1	3	1	plant_moss06.jpg     	plant2   	7	moss      	25	moss06      	255	alive    	1	still	0	natural 	1	n	0	0    	 	0.0	0	130.803105100058	130.90304820006702	0.0999431000091135
92808	100	236	stimuli\animals2\pigeon\animal_pigeon01.jpg      	1	3	1	animal_pigeon01.jpg  	animals2 	1	pigeon    	28	pigeon01    	280	alive    	1	moves	1	natural 	1	n	0	0    	 	0.0	0	130.953161600046	131.053069800139	0.0999082000926137
92958	100	237	stimuli\nonmovArt\bench\nma_bench07.jpg          	1	3	1	nma_bench07.jpg      	nonmovArt	4	bench     	1	bench07     	16	not_alive	0	still	0	artefact	0	n	0	0    	 	0.0	0	131.103138200007	131.203134100186	0.0999959001783281
93108	100	238	stimuli\animals\cat\animal_cat02.jpg             	1	3	1	animal_cat02.jpg     	animals  	0	cat       	6	cat02       	61	alive    	1	moves	1	natural 	1	n	0	0    	 	0.0	0	131.253256800119	131.353083600057	0.0998267999384552
93258	100	239	stimuli\nonmovArt\lock\nma_lock03.jpg            	1	3	1	nma_lock03.jpg       	nonmovArt	4	lock      	24	lock03      	242	not_alive	0	still	0	artefact	0	n	0	0    	 	0.0	0	131.40314109996	131.503051500069	0.0999104001093655
100407	100	240	stimuli\nonmovNat\cliff\nmn_cliff04.jpg          	1	4	1	nmn_cliff04.jpg      	nonmovNat	5	cliff     	7	cliff04     	73	not_alive	0	still	0	natural 	1	n	0	0    	 	0.0	0	138.552199500147	138.652197400108	0.0999978999607265
100557	100	241	stimuli\movNat\river\mn_river07.jpg              	1	4	1	mn_river07.jpg       	movNat   	3	river     	29	river07     	296	not_alive	0	moves	1	natural 	1	n	0	0    	 	0.0	0	138.702200900065	138.802188600181	0.0999877001158893
100707	100	242	stimuli\animals\eagle\animal_eagle09.jpg         	1	4	1	animal_eagle09.jpg   	animals  	0	eagle     	13	eagle09     	138	alive    	1	moves	1	natural 	1	n	0	0    	 	0.0	0	138.852214399958	138.95218100003	0.0999666000716388
100857	100	243	stimuli\plant\vine\plant_vine04.jpg              	1	4	1	plant_vine04.jpg     	plant    	6	vine      	36	vine04      	363	alive    	1	still	0	natural 	1	n	0	0    	 	0.0	0	139.002190800151	139.102181100054	0.0999902999028563
101007	100	244	stimuli\plant2\moss\plant_moss04.jpg             	1	4	1	plant_moss04.jpg     	plant2   	7	moss      	25	moss04      	253	alive    	1	still	0	natural 	1	n	0	0    	 	0.0	0	139.15218950016398	139.252183600096	0.0999940999317914
101157	100	245	stimuli\plant2\palmtree\plant_palmtree01.jpg     	1	4	1	plant_palmtree01.jpg 	plant2   	7	palmtree  	27	palmtree01  	270	alive    	1	still	0	natural 	1	n	0	0    	 	0.0	0	139.30219379998698	139.40217700018601	0.0999832001980394
101307	100	246	stimuli\plant2\fern\plant_fern03.jpg             	1	4	1	plant_fern03.jpg     	plant2   	7	fern      	14	fern03      	142	alive    	1	still	0	natural 	1	n	0	0    	 	0.0	0	139.452186200069	139.552179000108	0.0999928000383079
101457	100	247	stimuli\nonmovArt\headphones\nma_headphones04.jpg	1	4	1	nma_headphones04.jpg 	nonmovArt	4	headphones	18	headphones04	183	not_alive	0	still	0	artefact	0	n	0	0    	 	0.0	0	139.60218450008	139.702178300126	0.0999938000459224
101607	100	248	stimuli\animals\dolphin\animal_dolphin09.jpg     	1	4	1	animal_dolphin09.jpg 	animals  	0	dolphin   	12	dolphin09   	128	alive    	1	moves	1	natural 	1	n	0	0    	 	0.0	0	139.752186000114	139.852178300032	0.0999922999180853
101757	100	249	stimuli\movNat\hotspring\mn_hotspring07.jpg      	1	4	1	mn_hotspring07.jpg   	movNat   	3	hotspring 	21	hotspring07 	216	not_alive	0	moves	1	natural 	1	n	0	0    	 	0.0	0	139.902187900152	140.002174300142	0.0999863999895751
101907	100	250	stimuli\nonmovNat\shell\nmn_shell01.jpg          	1	4	1	nmn_shell01.jpg      	nonmovNat	5	shell     	32	shell01     	320	not_alive	0	still	0	natural 	1	n	0	0    	 	0.0	0	140.052182500018	140.15216960012899	0.0999871001113206
102057	100	251	stimuli\movArt\train\ma_train02.jpg              	1	4	1	ma_train02.jpg       	movArt   	2	train     	34	train02     	341	not_alive	0	moves	1	artefact	0	n	0	0    	 	0.0	0	140.20218490017598	140.302167100133	0.0999821999575942
102207	100	252	stimuli\nonmovArt\headphones\nma_headphones05.jpg	1	4	1	nma_headphones05.jpg 	nonmovArt	4	headphones	18	headphones05	184	not_alive	0	still	0	artefact	0	n	0	0    	 	0.0	0	140.35217530001	140.452171999961	0.0999966999515891
102357	100	253	stimuli\movNat\waterfall\mn_waterfall01.jpg      	1	4	1	mn_waterfall01.jpg   	movNat   	3	waterfall 	37	waterfall01 	370	not_alive	0	moves	1	natural 	1	n	0	0    	 	0.0	0	140.502173000015	140.60217009997	0.0999970999546349
102507	100	254	stimuli\plant2\clover\plant_clover02.jpg         	1	4	1	plant_clover02.jpg   	plant2   	7	clover    	9	clover02    	91	alive    	1	still	0	natural 	1	n	0	0    	 	0.0	0	140.65222349995702	140.752163000172	0.099939500214532
102657	100	255	stimuli\plant\grass\plant_grass01.jpg            	1	4	1	plant_grass01.jpg    	plant    	6	grass     	17	grass01     	170	alive    	1	still	0	natural 	1	n	0	0    	 	0.0	0	140.802174200071	140.90216560009898	0.0999914000276476
102807	100	256	stimuli\animals2\lemur\animal_lemur01.jpg        	1	4	1	animal_lemur01.jpg   	animals2 	1	lemur     	23	lemur01     	230	alive    	1	moves	1	natural 	1	n	0	0    	 	0.0	0	140.95216910005502	141.052164599998	0.0999954999424517
102957	100	257	stimuli\nonmovArt\mug\nma_mug09.jpg              	1	4	1	nma_mug09.jpg        	nonmovArt	4	mug       	26	mug09       	268	not_alive	0	still	0	artefact	0	n	0	0    	 	0.0	0	141.102168499958	141.202157800086	0.0999893001280725
103107	100	258	stimuli\animals2\bee\animal_bee07.jpg            	1	4	1	animal_bee07.jpg     	animals2 	1	bee       	0	bee07       	6	alive    	1	moves	1	natural 	1	n	0	0    	 	0.0	0	141.252175000031	141.35215690010202	0.0999819000717252
103257	100	259	stimuli\plant2\palmtree\plant_palmtree03.jpg     	1	4	1	plant_palmtree03.jpg 	plant2   	7	palmtree  	27	palmtree03  	272	alive    	1	still	0	natural 	1	n	0	0    	 	0.0	0	141.402169800131	141.502155499998	0.0999856998678296
103407	100	260	stimuli\animals\dog\animal_dog07.jpg             	1	4	1	animal_dog07.jpg     	animals  	0	dog       	11	dog07       	116	alive    	1	moves	1	natural 	1	n	0	0    	 	0.0	0	141.552169800038	141.652154200012	0.0999843999743461
103557	100	261	stimuli\plant\flower\plant_flower03.jpg          	1	4	1	plant_flower03.jpg   	plant    	6	flower    	16	flower03    	162	alive    	1	still	0	natural 	1	n	0	0    	 	0.0	0	141.70216910005502	141.802153300028	0.0999841999728232
103707	100	262	stimuli\nonmovArt\clothespeg\nma_clothespeg10.jpg	1	4	1	nma_clothespeg10.jpg 	nonmovArt	4	clothespeg	8	clothespeg10	89	not_alive	0	still	0	artefact	0	n	0	0    	 	0.0	0	141.852163900156	141.95215789997	0.0999939998146146
103857	100	263	stimuli\movNat\waves\mn_waves02.jpg              	1	4	1	mn_waves02.jpg       	movNat   	3	waves     	38	waves02     	381	not_alive	0	moves	1	natural 	1	n	0	0    	 	0.0	0	142.00216599996202	142.102150300052	0.09998430008999999
104007	100	264	stimuli\nonmovArt\mug\nma_mug07.jpg              	1	4	1	nma_mug07.jpg        	nonmovArt	4	mug       	26	mug07       	266	not_alive	0	still	0	artefact	0	n	1	0    	 	0.0	0	142.152157900156	142.25214930018402	0.0999914000276476
104157	100	265	stimuli\nonmovArt\bench\nma_bench03.jpg          	1	4	1	nma_bench03.jpg      	nonmovArt	4	bench     	1	bench03     	12	not_alive	0	still	0	artefact	0	n	0	0    	 	0.0	0	142.302155200159	142.402173400158	0.100018199998885
104307	100	266	stimuli\nonmovArt\mug\nma_mug05.jpg              	1	4	1	nma_mug05.jpg        	nonmovArt	4	mug       	26	mug05       	264	not_alive	0	still	0	artefact	0	n	0	1    	f	0.29214159981347604	1	142.452175900107	142.552146200091	0.0999702999833971
104457	100	267	stimuli\nonmovNat\rock\nmn_rock08.jpg            	1	4	1	nmn_rock08.jpg       	nonmovNat	5	rock      	30	rock08      	307	not_alive	0	still	0	natural 	1	n	0	0    	 	0.0	0	142.60215499997102	142.702143300092	0.099988300120458
104607	100	268	stimuli\nonmovNat\shell\nmn_shell10.jpg          	1	4	1	nmn_shell10.jpg      	nonmovNat	5	shell     	32	shell10     	329	not_alive	0	still	0	natural 	1	n	0	0    	 	0.0	0	142.752151899971	142.85214550001498	0.0999936000443995
104757	100	269	stimuli\plant\grass\plant_grass01.jpg            	1	4	1	plant_grass01.jpg    	plant    	6	grass     	17	grass01     	170	alive    	1	still	0	natural 	1	n	0	0    	 	0.0	0	142.902157000033	143.002142500132	0.0999855000991374
104907	100	270	stimuli\animals2\whale\animal_whale05.jpg        	1	4	1	animal_whale05.jpg   	animals2 	1	whale     	39	whale05     	394	alive    	1	moves	1	natural 	1	n	0	0    	 	0.0	0	143.05215270002398	143.152144700056	0.0999920000322163
105057	100	271	stimuli\nonmovNat\rock\nmn_rock05.jpg            	1	4	1	nmn_rock05.jpg       	nonmovNat	5	rock      	30	rock05      	304	not_alive	0	still	0	natural 	1	n	0	0    	 	0.0	0	143.202150000026	143.302137900144	0.0999879001174122
105207	100	272	stimuli\movArt\car\ma_car08.jpg                  	1	4	1	ma_car08.jpg         	movArt   	2	car       	5	car08       	57	not_alive	0	moves	1	artefact	0	n	1	0    	 	0.0	0	143.352151600178	143.45213590003598	0.0999842998571694
105357	100	273	stimuli\plant2\moss\plant_moss10.jpg             	1	4	1	plant_moss10.jpg     	plant2   	7	moss      	25	moss10      	259	alive    	1	still	0	natural 	1	n	0	0    	 	0.0	0	143.50215009995702	143.60214209998998	0.0999920000322163
105507	100	274	stimuli\animals2\pigeon\animal_pigeon04.jpg      	1	4	1	animal_pigeon04.jpg  	animals2 	1	pigeon    	28	pigeon04    	283	alive    	1	moves	1	natural 	1	n	0	1    	f	0.3919725997839121	1	143.6521505001	143.752138900105	0.0999884000048041
105657	100	275	stimuli\nonmovArt\lock\nma_lock10.jpg            	1	4	1	nma_lock10.jpg       	nonmovArt	4	lock      	24	lock10      	249	not_alive	0	still	0	artefact	0	n	0	0    	 	0.0	0	143.802147699986	143.902133499971	0.0999857999850064
105807	100	276	stimuli\plant\cactus\plant_cactus05.jpg          	1	4	1	plant_cactus05.jpg   	plant    	6	cactus    	4	cactus05    	44	alive    	1	still	0	natural 	1	n	0	0    	 	0.0	0	143.952145399991	144.052132199984	0.0999867999926209
105957	100	277	stimuli\movNat\fire\mn_fire09.jpg                	1	4	1	mn_fire09.jpg        	movNat   	3	fire      	15	fire09      	158	not_alive	0	moves	1	natural 	1	n	0	0    	 	0.0	0	144.102146800142	144.20214830013	0.10000149998813901
106107	100	278	stimuli\plant\vine\plant_vine02.jpg              	1	4	1	plant_vine02.jpg     	plant    	6	vine      	36	vine02      	361	alive    	1	still	0	natural 	1	n	0	0    	 	0.0	0	144.252160500037	144.352133100154	0.0999726001173257
106257	100	279	stimuli\plant\cactus\plant_cactus06.jpg          	1	4	1	plant_cactus06.jpg   	plant    	6	cactus    	4	cactus06    	45	alive    	1	still	0	natural 	1	n	0	0    	 	0.0	0	144.402137200115	144.502135599963	0.0999983998481184
106407	100	280	stimuli\animals\cat\animal_cat05.jpg             	1	4	1	animal_cat05.jpg     	animals  	0	cat       	6	cat05       	64	alive    	1	moves	1	natural 	1	n	0	0    	 	0.0	0	144.55214090016702	144.652129700175	0.0999888000078499
106557	100	281	stimuli\movNat\river\mn_river02.jpg              	1	4	1	mn_river02.jpg       	movNat   	3	river     	29	river02     	291	not_alive	0	moves	1	natural 	1	n	0	0    	 	0.0	0	144.702134500025	144.802121200133	0.0999867001082748
106707	100	282	stimuli\nonmovNat\cliff\nmn_cliff03.jpg          	1	4	1	nmn_cliff03.jpg      	nonmovNat	5	cliff     	7	cliff03     	72	not_alive	0	still	0	natural 	1	n	0	0    	 	0.0	0	144.852130600018	144.95212170016	0.0999911001417786
106857	100	283	stimuli\nonmovNat\rock\nmn_rock10.jpg            	1	4	1	nmn_rock10.jpg       	nonmovNat	5	rock      	30	rock10      	309	not_alive	0	still	0	natural 	1	n	0	0    	 	0.0	0	145.002137500094	145.10211960016701	0.0999821000732481
107007	100	284	stimuli\animals\dolphin\animal_dolphin10.jpg     	1	4	1	animal_dolphin10.jpg 	animals  	0	dolphin   	12	dolphin10   	129	alive    	1	moves	1	natural 	1	n	0	0    	 	0.0	0	145.152133899974	145.252118200064	0.09998430008999999
107157	100	285	stimuli\movArt\car\ma_car05.jpg                  	1	4	1	ma_car05.jpg         	movArt   	2	car       	5	car05       	54	not_alive	0	moves	1	artefact	0	n	0	0    	 	0.0	0	145.302127100062	145.40212250012	0.0999954000581056
107307	100	286	stimuli\plant\tree\plant_tree01.jpg              	1	4	1	plant_tree01.jpg     	plant    	6	tree      	35	tree01      	350	alive    	1	still	0	natural 	1	n	0	0    	 	0.0	0	145.452130699996	145.552122600144	0.0999919001478701
107457	100	287	stimuli\animals2\tiger\animal_tiger04.jpg        	1	4	1	animal_tiger04.jpg   	animals2 	1	tiger     	33	tiger04     	333	alive    	1	moves	1	natural 	1	n	0	0    	 	0.0	0	145.602125199977	145.702118900139	0.0999937001615762
107607	100	288	stimuli\nonmovArt\lock\nma_lock06.jpg            	1	4	1	nma_lock06.jpg       	nonmovArt	4	lock      	24	lock06      	245	not_alive	0	still	0	artefact	0	n	1	0    	 	0.0	0	145.75212620012502	145.852120700059	0.0999944999348372
107757	100	289	stimuli\plant2\moss\plant_moss04.jpg             	1	4	1	plant_moss04.jpg     	plant2   	7	moss      	25	moss04      	253	alive    	1	still	0	natural 	1	n	0	0    	 	0.0	0	145.902129500173	146.00213130004698	0.10000179987400802
107907	100	290	stimuli\nonmovNat\cliff\nmn_cliff10.jpg          	1	4	1	nmn_cliff10.jpg      	nonmovNat	5	cliff     	7	cliff10     	79	not_alive	0	still	0	natural 	1	n	0	1    	f	0.39197829994373	1	146.05212690006002	146.152107000118	0.0999801000580191
108057	100	291	stimuli\animals2\bee\animal_bee06.jpg            	1	4	1	animal_bee06.jpg     	animals2 	1	bee       	0	bee06       	5	alive    	1	moves	1	natural 	1	n	0	0    	 	0.0	0	146.20211990014602	146.302109700162	0.0999898000154644
108207	100	292	stimuli\plant\tree\plant_tree04.jpg              	1	4	1	plant_tree04.jpg     	plant    	6	tree      	35	tree04      	353	alive    	1	still	0	natural 	1	n	0	0    	 	0.0	0	146.352115100017	146.452110199956	0.0999950999394059
108357	100	293	stimuli\nonmovNat\sand\nmn_sand07.jpg            	1	4	1	nmn_sand07.jpg       	nonmovNat	5	sand      	31	sand07      	316	not_alive	0	still	0	natural 	1	n	0	0    	 	0.0	0	146.502115800045	146.602103400044	0.0999875999987125
108507	100	294	stimuli\animals2\lemur\animal_lemur03.jpg        	1	4	1	animal_lemur03.jpg   	animals2 	1	lemur     	23	lemur03     	232	alive    	1	moves	1	natural 	1	n	0	0    	 	0.0	0	146.65211939998002	146.752108900109	0.0999895001295954
108657	100	295	stimuli\movNat\waterfall\mn_waterfall03.jpg      	1	4	1	mn_waterfall03.jpg   	movNat   	3	waterfall 	37	waterfall03 	372	not_alive	0	moves	1	natural 	1	n	0	0    	 	0.0	0	146.80211420008	146.902101699961	0.0999874998815357
108807	100	296	stimuli\plant\cactus\plant_cactus01.jpg          	1	4	1	plant_cactus01.jpg   	plant    	6	cactus    	4	cactus01    	40	alive    	1	still	0	natural 	1	n	0	0    	 	0.0	0	146.952117500128	147.052102599991	0.0999850998632609
108957	100	297	stimuli\nonmovNat\crystal\nmn_crystal05.jpg      	1	4	1	nmn_crystal05.jpg    	nonmovNat	5	crystal   	10	crystal05   	104	not_alive	0	still	0	natural 	1	n	0	0    	 	0.0	0	147.10211600014	147.202097299974	0.0999812998343259
109107	100	298	stimuli\animals\dolphin\animal_dolphin04.jpg     	1	4	1	animal_dolphin04.jpg 	animals  	0	dolphin   	12	dolphin04   	123	alive    	1	moves	1	natural 	1	n	0	0    	 	0.0	0	147.25210719998	147.352079899982	0.0999727000016719
109257	100	299	stimuli\movArt\helicopter\ma_helicopter03.jpg    	1	4	1	ma_helicopter03.jpg  	movArt   	2	helicopter	19	helicopter03	192	not_alive	0	moves	1	artefact	0	n	0	0    	 	0.0	0	147.402109300019	147.502094600117	0.0999853000976145
109407	100	300	stimuli\animals\cat\animal_cat06.jpg             	1	4	1	animal_cat06.jpg     	animals  	0	cat       	6	cat06       	65	alive    	1	moves	1	natural 	1	n	0	0    	 	0.0	0	147.552094700048	147.65209680004	0.10000209999270698
109557	100	301	stimuli\plant2\fern\plant_fern05.jpg             	1	4	1	plant_fern05.jpg     	plant2   	7	fern      	14	fern05      	144	alive    	1	still	0	natural 	1	n	0	0    	 	0.0	0	147.702096099965	147.802115400089	0.10001930012367699
109707	100	302	stimuli\animals\horse\animal_horse01.jpg         	1	4	1	animal_horse01.jpg   	animals  	0	horse     	20	horse01     	200	alive    	1	moves	1	natural 	1	n	0	0    	 	0.0	0	147.85210640006702	147.952102700016	0.0999962999485433
109857	100	303	stimuli\nonmovArt\headphones\nma_headphones08.jpg	1	4	1	nma_headphones08.jpg 	nonmovArt	4	headphones	18	headphones08	187	not_alive	0	still	0	artefact	0	n	0	0    	 	0.0	0	148.002100100042	148.10209060018	0.0999905001372098
110007	100	304	stimuli\animals2\bee\animal_bee02.jpg            	1	4	1	animal_bee02.jpg     	animals2 	1	bee       	0	bee02       	1	alive    	1	moves	1	natural 	1	n	0	0    	 	0.0	0	148.152101299958	148.252086900175	0.0999856002163142
110157	100	305	stimuli\movArt\helicopter\ma_helicopter07.jpg    	1	4	1	ma_helicopter07.jpg  	movArt   	2	helicopter	19	helicopter07	196	not_alive	0	moves	1	artefact	0	n	0	0    	 	0.0	0	148.302097799955	148.402089500101	0.0999917001463472
110307	100	306	stimuli\movArt\helicopter\ma_helicopter09.jpg    	1	4	1	ma_helicopter09.jpg  	movArt   	2	helicopter	19	helicopter09	198	not_alive	0	moves	1	artefact	0	n	1	0    	 	0.0	0	148.452103100019	148.552084800089	0.0999817000702023
110457	100	307	stimuli\movArt\boat\ma_boat01.jpg                	1	4	1	ma_boat01.jpg        	movArt   	2	boat      	2	boat01      	20	not_alive	0	moves	1	artefact	0	n	0	0    	 	0.0	0	148.602099200012	148.70208410010702	0.0999849000945687
110607	100	308	stimuli\movArt\boat\ma_boat06.jpg                	1	4	1	ma_boat06.jpg        	movArt   	2	boat      	2	boat06      	25	not_alive	0	moves	1	artefact	0	n	0	0    	 	0.0	0	148.752099900041	148.852087300038	0.0999873999971896
110757	100	309	stimuli\animals2\whale\animal_whale07.jpg        	1	4	1	animal_whale07.jpg   	animals2 	1	whale     	39	whale07     	396	alive    	1	moves	1	natural 	1	n	0	1    	f	0.442126600071788	1	148.902090500109	149.002081800019	0.0999912999104708
110907	100	310	stimuli\plant\tree\plant_tree10.jpg              	1	4	1	plant_tree10.jpg     	plant    	6	tree      	35	tree10      	359	alive    	1	still	0	natural 	1	n	0	0    	 	0.0	0	149.052093200153	149.152890200028	0.100796999875456
111058	100	311	stimuli\plant2\palmtree\plant_palmtree04.jpg     	1	4	1	plant_palmtree04.jpg 	plant2   	7	palmtree  	27	palmtree04  	273	alive    	1	still	0	natural 	1	n	0	0    	 	0.0	0	149.202953699976	149.30286819999998	0.0999145000241696
111208	100	312	stimuli\nonmovNat\sand\nmn_sand09.jpg            	1	4	1	nmn_sand09.jpg       	nonmovNat	5	sand      	31	sand09      	318	not_alive	0	still	0	natural 	1	n	0	0    	 	0.0	0	149.35294300015101	149.452902500052	0.0999594999011606
111358	100	313	stimuli\animals\dog\animal_dog10.jpg             	1	4	1	animal_dog10.jpg     	animals  	0	dog       	11	dog10       	119	alive    	1	moves	1	natural 	1	n	0	0    	 	0.0	0	149.503134500002	149.60297230002502	0.0998378000222146
111508	100	314	stimuli\plant\flower\plant_flower07.jpg          	1	4	1	plant_flower07.jpg   	plant    	6	flower    	16	flower07    	166	alive    	1	still	0	natural 	1	n	0	0    	 	0.0	0	149.653078000061	149.752869799966	0.0997917999047786
111658	100	315	stimuli\animals\cat\animal_cat04.jpg             	1	4	1	animal_cat04.jpg     	animals  	0	cat       	6	cat04       	63	alive    	1	moves	1	natural 	1	n	0	0    	 	0.0	0	149.802962700138	149.902865600074	0.0999028999358415
111808	100	316	stimuli\animals\eagle\animal_eagle06.jpg         	1	4	1	animal_eagle06.jpg   	animals  	0	eagle     	13	eagle06     	135	alive    	1	moves	1	natural 	1	n	0	0    	 	0.0	0	149.95298349997	150.05287040001699	0.0998869000468403
111958	100	317	stimuli\animals\eagle\animal_eagle10.jpg         	1	4	1	animal_eagle10.jpg   	animals  	0	eagle     	13	eagle10     	139	alive    	1	moves	1	natural 	1	n	0	0    	 	0.0	0	150.102974500041	150.20285690017	0.0998824001289904
112108	100	318	stimuli\plant2\clover\plant_clover09.jpg         	1	4	1	plant_clover09.jpg   	plant2   	7	clover    	9	clover09    	98	alive    	1	still	0	natural 	1	n	0	0    	 	0.0	0	150.252942800056	150.35285580018498	0.0999130001291632
112258	100	319	stimuli\movNat\hotspring\mn_hotspring05.jpg      	1	4	1	mn_hotspring05.jpg   	movNat   	3	hotspring 	21	hotspring05 	214	not_alive	0	moves	1	natural 	1	n	0	0    	 	0.0	0	150.402975999983	150.502894700039	0.0999187000561505
120474	100	320	stimuli\plant\grass\plant_grass10.jpg            	1	5	1	plant_grass10.jpg    	plant    	6	grass     	17	grass10     	179	alive    	1	still	0	natural 	1	n	0	0    	 	0.0	0	158.619556999998	158.71946529997498	0.0999082999769598
120624	100	321	stimuli\animals2\tiger\animal_tiger08.jpg        	1	5	1	animal_tiger08.jpg   	animals2 	1	tiger     	33	tiger08     	337	alive    	1	moves	1	natural 	1	n	0	0    	 	0.0	0	158.769529600162	158.869438600028	0.0999089998658746
120774	100	322	stimuli\nonmovNat\crystal\nmn_crystal04.jpg      	1	5	1	nmn_crystal04.jpg    	nonmovNat	5	crystal   	10	crystal04   	103	not_alive	0	still	0	natural 	1	n	0	0    	 	0.0	0	158.919533800101	159.01946229999902	0.0999284998979419
120924	100	323	stimuli\nonmovArt\clothespeg\nma_clothespeg08.jpg	1	5	1	nma_clothespeg08.jpg 	nonmovArt	4	clothespeg	8	clothespeg08	87	not_alive	0	still	0	artefact	0	n	0	0    	 	0.0	0	159.069526300067	159.16946630016898	0.0999400001019239
121074	100	324	stimuli\nonmovNat\shell\nmn_shell05.jpg          	1	5	1	nmn_shell05.jpg      	nonmovNat	5	shell     	32	shell05     	324	not_alive	0	still	0	natural 	1	n	0	0    	 	0.0	0	159.21953979996	159.319546800107	0.100007000146434
121225	100	325	stimuli\animals\horse\animal_horse07.jpg         	1	5	1	animal_horse07.jpg   	animals  	0	horse     	20	horse07     	206	alive    	1	moves	1	natural 	1	n	0	0    	 	0.0	0	159.36975489999202	159.469565800158	0.0998109001666307
121374	100	326	stimuli\movNat\waterfall\mn_waterfall04.jpg      	1	5	1	mn_waterfall04.jpg   	movNat   	3	waterfall 	37	waterfall04 	373	not_alive	0	moves	1	natural 	1	n	0	0    	 	0.0	0	159.519556600135	159.619434799999	0.0998781998641789
121524	100	327	stimuli\movNat\waves\mn_waves05.jpg              	1	5	1	mn_waves05.jpg       	movNat   	3	waves     	38	waves05     	384	not_alive	0	moves	1	natural 	1	n	0	0    	 	0.0	0	159.66952620004298	159.769418000011	0.0998917999677359
121674	100	328	stimuli\plant2\fern\plant_fern04.jpg             	1	5	1	plant_fern04.jpg     	plant2   	7	fern      	14	fern04      	143	alive    	1	still	0	natural 	1	n	0	0    	 	0.0	0	159.819532500114	159.919425799977	0.0998932998627424
121824	100	329	stimuli\nonmovNat\crystal\nmn_crystal10.jpg      	1	5	1	nmn_crystal10.jpg    	nonmovNat	5	crystal   	10	crystal10   	109	not_alive	0	still	0	natural 	1	n	0	0    	 	0.0	0	159.969521900173	160.069428700022	0.0999067998491227
121974	100	330	stimuli\animals\dog\animal_dog05.jpg             	1	5	1	animal_dog05.jpg     	animals  	0	dog       	11	dog05       	114	alive    	1	moves	1	natural 	1	n	0	0    	 	0.0	0	160.119518900057	160.219455300132	0.0999364000745117
122124	100	331	stimuli\nonmovArt\bench\nma_bench10.jpg          	1	5	1	nma_bench10.jpg      	nonmovArt	4	bench     	1	bench10     	19	not_alive	0	still	0	artefact	0	n	0	0    	 	0.0	0	160.269536300097	160.369442200055	0.099905899958685
122274	100	332	stimuli\movNat\hotspring\mn_hotspring07.jpg      	1	5	1	mn_hotspring07.jpg   	movNat   	3	hotspring 	21	hotspring07 	216	not_alive	0	moves	1	natural 	1	n	0	0    	 	0.0	0	160.419514100067	160.519443900092	0.0999298000242561
122424	100	333	stimuli\movNat\river\mn_river01.jpg              	1	5	1	mn_river01.jpg       	movNat   	3	river     	29	river01     	290	not_alive	0	moves	1	natural 	1	n	0	0    	 	0.0	0	160.569515299983	160.669462300139	0.0999470001552254
122574	100	334	stimuli\animals\horse\animal_horse03.jpg         	1	5	1	animal_horse03.jpg   	animals  	0	horse     	20	horse03     	202	alive    	1	moves	1	natural 	1	n	0	0    	 	0.0	0	160.7195123001	160.81941030011498	0.0998980000149458
122724	100	335	stimuli\animals2\pigeon\animal_pigeon02.jpg      	1	5	1	animal_pigeon02.jpg  	animals2 	1	pigeon    	28	pigeon02    	281	alive    	1	moves	1	natural 	1	n	0	0    	 	0.0	0	160.86953090014902	160.969421500107	0.0998905999585986
122874	100	336	stimuli\plant2\lemontree\plant_lemontree09.jpg   	1	5	1	plant_lemontree09.jpg	plant2   	7	lemontree 	22	lemontree09 	228	alive    	1	still	0	natural 	1	n	0	0    	 	0.0	0	161.01954320003298	161.119655200047	0.10011200001463301
123025	100	337	stimuli\plant2\lemontree\plant_lemontree07.jpg   	1	5	1	plant_lemontree07.jpg	plant2   	7	lemontree 	22	lemontree07 	226	alive    	1	still	0	natural 	1	n	0	0    	 	0.0	0	161.169684099965	161.269469200168	0.0997851002030074
123174	100	338	stimuli\movArt\bus\ma_bus07.jpg                  	1	5	1	ma_bus07.jpg         	movArt   	2	bus       	3	bus07       	36	not_alive	0	moves	1	artefact	0	n	0	0    	 	0.0	0	161.319507700158	161.41942799999399	0.0999202998355031
123324	100	339	stimuli\nonmovArt\bench\nma_bench01.jpg          	1	5	1	nma_bench01.jpg      	nonmovArt	4	bench     	1	bench01     	10	not_alive	0	still	0	artefact	0	n	0	0    	 	0.0	0	161.469529900001	161.569419000065	0.0998891000635922
123474	100	340	stimuli\plant\flower\plant_flower01.jpg          	1	5	1	plant_flower01.jpg   	plant    	6	flower    	16	flower01    	160	alive    	1	still	0	natural 	1	n	0	0    	 	0.0	0	161.61952550010798	161.719409900019	0.0998843999113887
123624	100	341	stimuli\plant2\lemontree\plant_lemontree08.jpg   	1	5	1	plant_lemontree08.jpg	plant2   	7	lemontree 	22	lemontree08 	227	alive    	1	still	0	natural 	1	n	0	0    	 	0.0	0	161.769507799996	161.86944020004	0.0999324000440538
123774	100	342	stimuli\movArt\boat\ma_boat07.jpg                	1	5	1	ma_boat07.jpg        	movArt   	2	boat      	2	boat07      	26	not_alive	0	moves	1	artefact	0	n	0	0    	 	0.0	0	161.919494200032	162.019451200031	0.0999569999985396
123924	100	343	stimuli\movArt\train\ma_train04.jpg              	1	5	1	ma_train04.jpg       	movArt   	2	train     	34	train04     	343	not_alive	0	moves	1	artefact	0	n	0	0    	 	0.0	0	162.06948549998899	162.169407699956	0.0999221999663859
124074	100	344	stimuli\movArt\train\ma_train07.jpg              	1	5	1	ma_train07.jpg       	movArt   	2	train     	34	train07     	346	not_alive	0	moves	1	artefact	0	n	0	0    	 	0.0	0	162.219494699966	162.319416400045	0.099921700078994
124224	100	345	stimuli\movArt\bus\ma_bus07.jpg                  	1	5	1	ma_bus07.jpg         	movArt   	2	bus       	3	bus07       	36	not_alive	0	moves	1	artefact	0	n	0	0    	 	0.0	0	162.369529200019	162.469406000106	0.0998768000863492
124374	100	346	stimuli\nonmovArt\lock\nma_lock02.jpg            	1	5	1	nma_lock02.jpg       	nonmovArt	4	lock      	24	lock02      	241	not_alive	0	still	0	artefact	0	n	0	0    	 	0.0	0	162.51950140018	162.619427600177	0.0999261999968439
124524	100	347	stimuli\plant\vine\plant_vine06.jpg              	1	5	1	plant_vine06.jpg     	plant    	6	vine      	36	vine06      	365	alive    	1	still	0	natural 	1	n	0	0    	 	0.0	0	162.669498400064	162.769409400178	0.0999110001139342
124674	100	348	stimuli\animals2\lemur\animal_lemur08.jpg        	1	5	1	animal_lemur08.jpg   	animals2 	1	lemur     	23	lemur08     	237	alive    	1	moves	1	natural 	1	n	0	0    	 	0.0	0	162.819507100154	162.919523400022	0.100016299868003
124824	100	349	stimuli\plant2\clover\plant_clover01.jpg         	1	5	1	plant_clover01.jpg   	plant2   	7	clover    	9	clover01    	90	alive    	1	still	0	natural 	1	n	0	0    	 	0.0	0	162.969652300002	163.069410600001	0.09975829999893902
124974	100	350	stimuli\movArt\bus\ma_bus04.jpg                  	1	5	1	ma_bus04.jpg         	movArt   	2	bus       	3	bus04       	33	not_alive	0	moves	1	artefact	0	n	0	0    	 	0.0	0	163.11951370001802	163.219395600026	0.0998819000087678
125124	100	351	stimuli\movNat\waves\mn_waves04.jpg              	1	5	1	mn_waves04.jpg       	movNat   	3	waves     	38	waves04     	383	not_alive	0	moves	1	natural 	1	n	1	0    	 	0.0	0	163.269478900125	163.36940059997102	0.0999216998461634
125274	100	352	stimuli\nonmovArt\clothespeg\nma_clothespeg09.jpg	1	5	1	nma_clothespeg09.jpg 	nonmovArt	4	clothespeg	8	clothespeg09	88	not_alive	0	still	0	artefact	0	n	0	0    	 	0.0	0	163.419490100117	163.51939869998	0.0999085998628288
125424	100	353	stimuli\nonmovNat\sand\nmn_sand09.jpg            	1	5	1	nmn_sand09.jpg       	nonmovNat	5	sand      	31	sand09      	318	not_alive	0	still	0	natural 	1	n	0	1    	f	0.292035700054839	1	163.569475800032	163.66941089998002	0.0999350999481976
125574	100	354	stimuli\animals2\whale\animal_whale01.jpg        	1	5	1	animal_whale01.jpg   	animals2 	1	whale     	39	whale01     	390	alive    	1	moves	1	natural 	1	n	0	0    	 	0.0	0	163.719490800053	163.819429800147	0.0999390000943094
125724	100	355	stimuli\movNat\fire\mn_fire06.jpg                	1	5	1	mn_fire06.jpg        	movNat   	3	fire      	15	fire06      	155	not_alive	0	moves	1	natural 	1	n	0	0    	 	0.0	0	163.86951370001802	163.969393300125	0.0998796001076698
125874	100	356	stimuli\movNat\fire\mn_fire04.jpg                	1	5	1	mn_fire04.jpg        	movNat   	3	fire      	15	fire04      	153	not_alive	0	moves	1	natural 	1	n	0	0    	 	0.0	0	164.019485700177	164.119397000177	0.0999112999998033
126024	100	357	stimuli\animals2\tiger\animal_tiger02.jpg        	1	5	1	animal_tiger02.jpg   	animals2 	1	tiger     	33	tiger02     	331	alive    	1	moves	1	natural 	1	n	0	0    	 	0.0	0	164.16949240001802	164.269389200024	0.0998968000058084
126174	100	358	stimuli\animals2\pigeon\animal_pigeon03.jpg      	1	5	1	animal_pigeon03.jpg  	animals2 	1	pigeon    	28	pigeon03    	282	alive    	1	moves	1	natural 	1	n	0	0    	 	0.0	0	164.319482499966	164.419401400024	0.0999189000576734
126324	100	359	stimuli\movArt\car\ma_car08.jpg                  	1	5	1	ma_car08.jpg         	movArt   	2	car       	5	car08       	57	not_alive	0	moves	1	artefact	0	n	0	0    	 	0.0	0	164.469482100103	164.569380100118	0.0998980000149458
126474	100	360	stimuli\animals2\bee\animal_bee10.jpg            	1	5	1	animal_bee10.jpg     	animals2 	1	bee       	0	bee10       	9	alive    	1	moves	1	natural 	1	n	0	0    	 	0.0	0	164.619463900104	164.71947450004498	0.10001059994101501
126624	100	361	stimuli\animals2\tiger\animal_tiger07.jpg        	1	5	1	animal_tiger07.jpg   	animals2 	1	tiger     	33	tiger07     	336	alive    	1	moves	1	natural 	1	n	0	0    	 	0.0	0	164.769582299981	164.86938010016502	0.0997978001832962
126774	100	362	stimuli\plant\grass\plant_grass07.jpg            	1	5	1	plant_grass07.jpg    	plant    	6	grass     	17	grass07     	176	alive    	1	still	0	natural 	1	n	0	0    	 	0.0	0	164.919470400084	165.01938970014498	0.0999193000607192
126924	100	363	stimuli\movNat\waves\mn_waves01.jpg              	1	5	1	mn_waves01.jpg       	movNat   	3	waves     	38	waves01     	380	not_alive	0	moves	1	natural 	1	n	0	0    	 	0.0	0	165.069501100108	165.169381000102	0.0998798999935388
127074	100	364	stimuli\plant2\clover\plant_clover03.jpg         	1	5	1	plant_clover03.jpg   	plant2   	7	clover    	9	clover03    	92	alive    	1	still	0	natural 	1	n	0	0    	 	0.0	0	165.219460900174	165.319374799961	0.0999138997867703
127224	100	365	stimuli\animals\eagle\animal_eagle09.jpg         	1	5	1	animal_eagle09.jpg   	animals  	0	eagle     	13	eagle09     	138	alive    	1	moves	1	natural 	1	n	0	0    	 	0.0	0	165.369460599963	165.46938260016	0.0999220001976937
127374	100	366	stimuli\movNat\fire\mn_fire09.jpg                	1	5	1	mn_fire09.jpg        	movNat   	3	fire      	15	fire09      	158	not_alive	0	moves	1	natural 	1	n	0	0    	 	0.0	0	165.519464000128	165.61938820011002	0.0999241999816149
127524	100	367	stimuli\nonmovArt\bench\nma_bench05.jpg          	1	5	1	nma_bench05.jpg      	nonmovArt	4	bench     	1	bench05     	14	not_alive	0	still	0	artefact	0	n	1	0    	 	0.0	0	165.669465000043	165.769371600123	0.0999066000804305
127674	100	368	stimuli\movArt\bus\ma_bus05.jpg                  	1	5	1	ma_bus05.jpg         	movArt   	2	bus       	3	bus05       	34	not_alive	0	moves	1	artefact	0	n	0	0    	 	0.0	0	165.81945249997102	165.919403700158	0.0999512001872062
127824	100	369	stimuli\plant\cactus\plant_cactus09.jpg          	1	5	1	plant_cactus09.jpg   	plant    	6	cactus    	4	cactus09    	48	alive    	1	still	0	natural 	1	n	0	1    	f	0.292062000138685	1	165.96949190017799	166.069364800118	0.0998728999402374
127974	100	370	stimuli\animals\cat\animal_cat04.jpg             	1	5	1	animal_cat04.jpg     	animals  	0	cat       	6	cat04       	63	alive    	1	moves	1	natural 	1	n	0	0    	 	0.0	0	166.119526199996	166.219406699995	0.0998804999981075
128124	100	371	stimuli\animals\horse\animal_horse03.jpg         	1	5	1	animal_horse03.jpg   	animals  	0	horse     	20	horse03     	202	alive    	1	moves	1	natural 	1	n	0	0    	 	0.0	0	166.269454500172	166.369402500102	0.0999479999300092
128274	100	372	stimuli\movArt\car\ma_car01.jpg                  	1	5	1	ma_car01.jpg         	movArt   	2	car       	5	car01       	50	not_alive	0	moves	1	artefact	0	n	0	0    	 	0.0	0	166.419421800179	166.519464600133	0.10004279995337101
128424	100	373	stimuli\animals2\whale\animal_whale09.jpg        	1	5	1	animal_whale09.jpg   	animals2 	1	whale     	39	whale09     	398	alive    	1	moves	1	natural 	1	n	0	0    	 	0.0	0	166.569608200109	166.66938340011998	0.0997752000112086
128574	100	374	stimuli\animals\eagle\animal_eagle02.jpg         	1	5	1	animal_eagle02.jpg   	animals  	0	eagle     	13	eagle02     	131	alive    	1	moves	1	natural 	1	n	0	0    	 	0.0	0	166.71945510013	166.819361800095	0.0999066999647766
128724	100	375	stimuli\nonmovNat\sand\nmn_sand08.jpg            	1	5	1	nmn_sand08.jpg       	nonmovNat	5	sand      	31	sand08      	317	not_alive	0	still	0	natural 	1	n	0	0    	 	0.0	0	166.86946730013	166.96936560003098	0.0998982999008148
128874	100	376	stimuli\nonmovNat\rock\nmn_rock01.jpg            	1	5	1	nmn_rock01.jpg       	nonmovNat	5	rock      	30	rock01      	300	not_alive	0	still	0	natural 	1	n	0	0    	 	0.0	0	167.019452700159	167.119365900056	0.0999131998978555
129024	100	377	stimuli\nonmovArt\lock\nma_lock07.jpg            	1	5	1	nma_lock07.jpg       	nonmovArt	4	lock      	24	lock07      	246	not_alive	0	still	0	artefact	0	n	0	0    	 	0.0	0	167.169473600108	167.269360500155	0.0998869000468403
129174	100	378	stimuli\movNat\river\mn_river05.jpg              	1	5	1	mn_river05.jpg       	movNat   	3	river     	29	river05     	294	not_alive	0	moves	1	natural 	1	n	0	0    	 	0.0	0	167.319448800059	167.419358600164	0.0999098001047968
129324	100	379	stimuli\movArt\train\ma_train02.jpg              	1	5	1	ma_train02.jpg       	movArt   	2	train     	34	train02     	341	not_alive	0	moves	1	artefact	0	n	0	0    	 	0.0	0	167.469471500022	167.569347199984	0.0998756999615579
129474	100	380	stimuli\plant\vine\plant_vine07.jpg              	1	5	1	plant_vine07.jpg     	plant    	6	vine      	36	vine07      	366	alive    	1	still	0	natural 	1	n	0	0    	 	0.0	0	167.619473600062	167.719334800029	0.0998611999675631
129624	100	381	stimuli\nonmovArt\clothespeg\nma_clothespeg04.jpg	1	5	1	nma_clothespeg04.jpg 	nonmovArt	4	clothespeg	8	clothespeg04	83	not_alive	0	still	0	artefact	0	n	0	0    	 	0.0	0	167.769468300045	167.869359800126	0.0998915000818669
129774	100	382	stimuli\movNat\hotspring\mn_hotspring02.jpg      	1	5	1	mn_hotspring02.jpg   	movNat   	3	hotspring 	21	hotspring02 	211	not_alive	0	moves	1	natural 	1	n	0	0    	 	0.0	0	167.919471000088	168.019367400091	0.0998964000027626
129924	100	383	stimuli\nonmovNat\rock\nmn_rock05.jpg            	1	5	1	nmn_rock05.jpg       	nonmovNat	5	rock      	30	rock05      	304	not_alive	0	still	0	natural 	1	n	0	0    	 	0.0	0	168.06944550014998	168.169357600156	0.0999121000058949
130074	100	384	stimuli\animals\dog\animal_dog03.jpg             	1	5	1	animal_dog03.jpg     	animals  	0	dog       	11	dog03       	112	alive    	1	moves	1	natural 	1	n	0	0    	 	0.0	0	168.21955330018	168.319426800124	0.0998734999448061
130224	100	385	stimuli\plant2\lemontree\plant_lemontree10.jpg   	1	5	1	plant_lemontree10.jpg	plant2   	7	lemontree 	22	lemontree10 	229	alive    	1	still	0	natural 	1	n	0	0    	 	0.0	0	168.369561300147	168.46933980006702	0.0997784999199211
130374	100	386	stimuli\movNat\river\mn_river02.jpg              	1	5	1	mn_river02.jpg       	movNat   	3	river     	29	river02     	291	not_alive	0	moves	1	natural 	1	n	0	0    	 	0.0	0	168.519458099967	168.61934760003402	0.09988950006663799
130524	100	387	stimuli\movArt\helicopter\ma_helicopter10.jpg    	1	5	1	ma_helicopter10.jpg  	movArt   	2	helicopter	19	helicopter10	199	not_alive	0	moves	1	artefact	0	n	0	0    	 	0.0	0	168.669463500148	168.76934930007	0.099885799922049
130674	100	388	stimuli\nonmovArt\bench\nma_bench01.jpg          	1	5	1	nma_bench01.jpg      	nonmovArt	4	bench     	1	bench01     	10	not_alive	0	still	0	artefact	0	n	0	0    	 	0.0	0	168.819464200176	168.919371300144	0.0999070999678224
130824	100	389	stimuli\nonmovArt\mug\nma_mug05.jpg              	1	5	1	nma_mug05.jpg        	nonmovArt	4	mug       	26	mug05       	264	not_alive	0	still	0	artefact	0	n	0	0    	 	0.0	0	168.969431500183	169.069336900022	0.0999053998384624
130974	100	390	stimuli\nonmovNat\cliff\nmn_cliff09.jpg          	1	5	1	nmn_cliff09.jpg      	nonmovNat	5	cliff     	7	cliff09     	78	not_alive	0	still	0	natural 	1	n	0	0    	 	0.0	0	169.11944540008002	169.219335600035	0.0998901999555528
131124	100	391	stimuli\nonmovArt\mug\nma_mug10.jpg              	1	5	1	nma_mug10.jpg        	nonmovArt	4	mug       	26	mug10       	269	not_alive	0	still	0	artefact	0	n	0	0    	 	0.0	0	169.269442900084	169.369360900018	0.09991799993440499
131274	100	392	stimuli\animals\eagle\animal_eagle01.jpg         	1	5	1	animal_eagle01.jpg   	animals  	0	eagle     	13	eagle01     	130	alive    	1	moves	1	natural 	1	n	0	0    	 	0.0	0	169.419423799962	169.519336099969	0.0999123000074178
131424	100	393	stimuli\animals2\lemur\animal_lemur05.jpg        	1	5	1	animal_lemur05.jpg   	animals2 	1	lemur     	23	lemur05     	234	alive    	1	moves	1	natural 	1	n	0	0    	 	0.0	0	169.569454299984	169.669350499986	0.0998962000012397
131574	100	394	stimuli\movArt\boat\ma_boat03.jpg                	1	5	1	ma_boat03.jpg        	movArt   	2	boat      	2	boat03      	22	not_alive	0	moves	1	artefact	0	n	0	0    	 	0.0	0	169.719423200004	169.81933180009898	0.0999086000956595
131724	100	395	stimuli\plant\tree\plant_tree02.jpg              	1	5	1	plant_tree02.jpg     	plant    	6	tree      	35	tree02      	351	alive    	1	still	0	natural 	1	n	0	0    	 	0.0	0	169.86942310002598	169.96930969995398	0.0998865999281406
131874	100	396	stimuli\plant2\lemontree\plant_lemontree08.jpg   	1	5	1	plant_lemontree08.jpg	plant2   	7	lemontree 	22	lemontree08 	227	alive    	1	still	0	natural 	1	n	0	0    	 	0.0	0	170.019510500133	170.119502500165	0.0999920000322163
132024	100	397	stimuli\plant2\moss\plant_moss05.jpg             	1	5	1	plant_moss05.jpg     	plant2   	7	moss      	25	moss05      	254	alive    	1	still	0	natural 	1	n	0	0    	 	0.0	0	170.169430900132	170.269322900102	0.0998919999692589
132174	100	398	stimuli\nonmovArt\bench\nma_bench08.jpg          	1	5	1	nma_bench08.jpg      	nonmovArt	4	bench     	1	bench08     	17	not_alive	0	still	0	artefact	0	n	0	0    	 	0.0	0	170.319417300168	170.419328000164	0.0999106999952346
132324	100	399	stimuli\animals2\lemur\animal_lemur10.jpg        	1	5	1	animal_lemur10.jpg   	animals2 	1	lemur     	23	lemur10     	239	alive    	1	moves	1	natural 	1	n	0	0    	 	0.0	0	170.469395100139	170.569325500168	0.0999304000288248
141008	100	400	stimuli\animals2\bee\animal_bee04.jpg            	1	6	1	animal_bee04.jpg     	animals2 	1	bee       	0	bee04       	3	alive    	1	moves	1	natural 	1	n	0	0    	 	0.0	0	179.152690200135	179.25259879999803	0.0999085998628288
141158	100	401	stimuli\animals\dolphin\animal_dolphin03.jpg     	1	6	1	animal_dolphin03.jpg 	animals  	0	dolphin   	12	dolphin03   	122	alive    	1	moves	1	natural 	1	n	0	0    	 	0.0	0	179.302668200107	179.402575300075	0.0999070999678224
141308	100	402	stimuli\animals2\whale\animal_whale02.jpg        	1	6	1	animal_whale02.jpg   	animals2 	1	whale     	39	whale02     	391	alive    	1	moves	1	natural 	1	n	0	0    	 	0.0	0	179.45267749996898	179.552572800079	0.09989530011080199
141458	100	403	stimuli\movArt\bus\ma_bus08.jpg                  	1	6	1	ma_bus08.jpg         	movArt   	2	bus       	3	bus08       	37	not_alive	0	moves	1	artefact	0	n	0	0    	 	0.0	0	179.602672900073	179.702569199959	0.0998962998855859
141608	100	404	stimuli\nonmovNat\sand\nmn_sand10.jpg            	1	6	1	nmn_sand10.jpg       	nonmovNat	5	sand      	31	sand10      	319	not_alive	0	still	0	natural 	1	n	0	0    	 	0.0	0	179.752676800126	179.852566699963	0.0998898998368531
141758	100	405	stimuli\movArt\boat\ma_boat03.jpg                	1	6	1	ma_boat03.jpg        	movArt   	2	boat      	2	boat03      	22	not_alive	0	moves	1	artefact	0	n	0	0    	 	0.0	0	179.902661500033	180.002591000171	0.09992950013838699
141908	100	406	stimuli\plant2\lemontree\plant_lemontree03.jpg   	1	6	1	plant_lemontree03.jpg	plant2   	7	lemontree 	22	lemontree03 	222	alive    	1	still	0	natural 	1	n	0	0    	 	0.0	0	180.052639800124	180.15255790017503	0.0999181000515818
142058	100	407	stimuli\animals2\pigeon\animal_pigeon09.jpg      	1	6	1	animal_pigeon09.jpg  	animals2 	1	pigeon    	28	pigeon09    	288	alive    	1	moves	1	natural 	1	n	0	0    	 	0.0	0	180.202685100026	180.302765800152	0.100080700125545
142208	100	408	stimuli\plant\vine\plant_vine08.jpg              	1	6	1	plant_vine08.jpg     	plant    	6	vine      	36	vine08      	367	alive    	1	still	0	natural 	1	n	0	0    	 	0.0	0	180.352790800156	180.45257299998798	0.0997821998316794
142358	100	409	stimuli\plant2\palmtree\plant_palmtree01.jpg     	1	6	1	plant_palmtree01.jpg 	plant2   	7	palmtree  	27	palmtree01  	270	alive    	1	still	0	natural 	1	n	0	0    	 	0.0	0	180.502670000074	180.602546500042	0.0998764999676495
142508	100	410	stimuli\nonmovNat\rock\nmn_rock01.jpg            	1	6	1	nmn_rock01.jpg       	nonmovNat	5	rock      	30	rock01      	300	not_alive	0	still	0	natural 	1	n	0	0    	 	0.0	0	180.65265320008598	180.75257180002498	0.0999185999389737
142658	100	411	stimuli\plant2\clover\plant_clover03.jpg         	1	6	1	plant_clover03.jpg   	plant2   	7	clover    	9	clover03    	92	alive    	1	still	0	natural 	1	n	0	0    	 	0.0	0	180.80266190017602	180.902577599976	0.0999156998004764
142808	100	412	stimuli\animals\cat\animal_cat06.jpg             	1	6	1	animal_cat06.jpg     	animals  	0	cat       	6	cat06       	65	alive    	1	moves	1	natural 	1	n	0	0    	 	0.0	0	180.95263119996497	181.052551000146	0.0999198001809418
142958	100	413	stimuli\animals2\tiger\animal_tiger01.jpg        	1	6	1	animal_tiger01.jpg   	animals2 	1	tiger     	33	tiger01     	330	alive    	1	moves	1	natural 	1	n	0	0    	 	0.0	0	181.10263940016702	181.202550300164	0.0999108999967575
143108	100	414	stimuli\plant\grass\plant_grass06.jpg            	1	6	1	plant_grass06.jpg    	plant    	6	grass     	17	grass06     	175	alive    	1	still	0	natural 	1	n	1	0    	 	0.0	0	181.25266160001	181.352574900025	0.0999133000150322
143258	100	415	stimuli\movArt\train\ma_train08.jpg              	1	6	1	ma_train08.jpg       	movArt   	2	train     	34	train08     	347	not_alive	0	moves	1	artefact	0	n	1	0    	 	0.0	0	181.40263180015597	181.50256950012403	0.0999376999679952
143408	100	416	stimuli\nonmovNat\shell\nmn_shell02.jpg          	1	6	1	nmn_shell02.jpg      	nonmovNat	5	shell     	32	shell02     	321	not_alive	0	still	0	natural 	1	n	0	1    	f	0.142077999887988	1	181.55264320015	181.652554200031	0.0999109998811036
143558	100	417	stimuli\nonmovNat\crystal\nmn_crystal06.jpg      	1	6	1	nmn_crystal06.jpg    	nonmovNat	5	crystal   	10	crystal06   	105	not_alive	0	still	0	natural 	1	n	0	0    	 	0.0	0	181.702652100008	181.802577400114	0.0999253001064062
