onset	duration	eventnumber	stimulus_file	blockno	trialno	is_faststream	stim	stim_category	category_number	exemplar	exemplar_number	image_name	image_number	aliveness	aliveness_bin	movement	movement_bin	naturalness	naturalness_bin	response_hand_moves	istarget	response	keypressed	rt	correct	time_stimon	time_stimoff	stimdur
45743	100	0	stimuli\movArt\car\ma_car06.jpg                  	1	1	1	ma_car06.jpg         	movArt   	2	car       	5	car06       	55	not_alive	0	moves	1	artefact	0	n	0	0    	 	0.0	0	69.16003450006251	69.25992500002029	0.0998904999578371
45893	100	1	stimuli\plant\grass\plant_grass03.jpg            	1	1	1	plant_grass03.jpg    	plant    	6	grass     	17	grass03     	172	alive    	1	still	0	natural 	1	n	0	0    	 	0.0	0	69.31004230002871	69.40994050004521	0.0998982000164687
46043	100	2	stimuli\nonmovNat\sand\nmn_sand02.jpg            	1	1	1	nmn_sand02.jpg       	nonmovNat	5	sand      	31	sand02      	311	not_alive	0	still	0	natural 	1	n	0	0    	 	0.0	0	69.4600175999804	69.5599230000516	0.0999054000712931
46193	100	3	stimuli\animals2\whale\animal_whale04.jpg        	1	1	1	animal_whale04.jpg   	animals2 	1	whale     	39	whale04     	393	alive    	1	moves	1	natural 	1	n	0	0    	 	0.0	0	69.6100373000372	69.7099430999951	0.0999057999579236
46343	100	4	stimuli\nonmovArt\clothespeg\nma_clothespeg01.jpg	1	1	1	nma_clothespeg01.jpg 	nonmovArt	4	clothespeg	8	clothespeg01	80	not_alive	0	still	0	artefact	0	n	0	0    	 	0.0	0	69.7600252999691	69.85991150001061	0.0998862000415101
46493	100	5	stimuli\movArt\train\ma_train04.jpg              	1	1	1	ma_train04.jpg       	movArt   	2	train     	34	train04     	343	not_alive	0	moves	1	artefact	0	n	0	0    	 	0.0	0	69.9100222999696	70.0099244000157	0.0999021000461652
46643	100	6	stimuli\movNat\river\mn_river10.jpg              	1	1	1	mn_river10.jpg       	movNat   	3	river     	29	river10     	299	not_alive	0	moves	1	natural 	1	n	0	0    	 	0.0	0	70.06001790007579	70.1599310999736	0.0999131998978555
46793	100	7	stimuli\plant2\palmtree\plant_palmtree08.jpg     	1	1	1	plant_palmtree08.jpg 	plant2   	7	palmtree  	27	palmtree08  	277	alive    	1	still	0	natural 	1	n	0	0    	 	0.0	0	70.2100173999788	70.3099206000334	0.0999032000545412
46943	100	8	stimuli\plant2\palmtree\plant_palmtree02.jpg     	1	1	1	plant_palmtree02.jpg 	plant2   	7	palmtree  	27	palmtree02  	271	alive    	1	still	0	natural 	1	n	0	0    	 	0.0	0	70.3603402000153	70.45993270003241	0.0995925000170245
47093	100	9	stimuli\movArt\bus\ma_bus05.jpg                  	1	1	1	ma_bus05.jpg         	movArt   	2	bus       	3	bus05       	34	not_alive	0	moves	1	artefact	0	n	0	0    	 	0.0	0	70.5101026999764	70.60992329998409	0.0998206000076606
47243	100	10	stimuli\animals\cat\animal_cat08.jpg             	1	1	1	animal_cat08.jpg     	animals  	0	cat       	6	cat08       	67	alive    	1	moves	1	natural 	1	n	0	0    	 	0.0	0	70.65997570008041	70.75990529998671	0.0999295999063178
47393	100	11	stimuli\plant2\clover\plant_clover03.jpg         	1	1	1	plant_clover03.jpg   	plant2   	7	clover    	9	clover03    	92	alive    	1	still	0	natural 	1	n	1	0    	 	0.0	0	70.8100118000293	70.9099171999842	0.0999053999548778
47543	100	12	stimuli\nonmovNat\cliff\nmn_cliff10.jpg          	1	1	1	nmn_cliff10.jpg      	nonmovNat	5	cliff     	7	cliff10     	79	not_alive	0	still	0	natural 	1	n	0	0    	 	0.0	0	70.95999460003809	71.059915699996	0.09992109995801
47693	100	13	stimuli\plant2\moss\plant_moss04.jpg             	1	1	1	plant_moss04.jpg     	plant2   	7	moss      	25	moss04      	253	alive    	1	still	0	natural 	1	n	0	1    	f	0.400098899961449	1	71.1100100000622	71.2099226000719	0.0999126000097021
47843	100	14	stimuli\animals2\pigeon\animal_pigeon06.jpg      	1	1	1	animal_pigeon06.jpg  	animals2 	1	pigeon    	28	pigeon06    	285	alive    	1	moves	1	natural 	1	n	0	0    	 	0.0	0	71.25998630002141	71.3599195000716	0.0999332000501454
47993	100	15	stimuli\nonmovNat\rock\nmn_rock03.jpg            	1	1	1	nmn_rock03.jpg       	nonmovNat	5	rock      	30	rock03      	302	not_alive	0	still	0	natural 	1	n	0	0    	 	0.0	0	71.4100028000539	71.5099136000499	0.099910799995996
48143	100	16	stimuli\plant2\lemontree\plant_lemontree10.jpg   	1	1	1	plant_lemontree10.jpg	plant2   	7	lemontree 	22	lemontree10 	229	alive    	1	still	0	natural 	1	n	0	0    	 	0.0	0	71.55999750003679	71.6599156999728	0.099918199935928
48293	100	17	stimuli\animals2\tiger\animal_tiger07.jpg        	1	1	1	animal_tiger07.jpg   	animals2 	1	tiger     	33	tiger07     	336	alive    	1	moves	1	natural 	1	n	0	0    	 	0.0	0	71.7100179999834	71.80993560003121	0.0999176000477746
48443	100	18	stimuli\animals2\whale\animal_whale01.jpg        	1	1	1	animal_whale01.jpg   	animals2 	1	whale     	39	whale01     	390	alive    	1	moves	1	natural 	1	n	0	0    	 	0.0	0	71.8599868000019	71.9599105999805	0.0999237999785691
48593	100	19	stimuli\nonmovArt\lock\nma_lock06.jpg            	1	1	1	nma_lock06.jpg       	nonmovArt	4	lock      	24	lock06      	245	not_alive	0	still	0	artefact	0	n	0	0    	 	0.0	0	72.0100272999844	72.1099959000712	0.0999686000868678
48743	100	20	stimuli\movArt\boat\ma_boat08.jpg                	1	1	1	ma_boat08.jpg        	movArt   	2	boat      	2	boat08      	27	not_alive	0	moves	1	artefact	0	n	0	0    	 	0.0	0	72.1601195000112	72.25995480001441	0.0998353000031784
48893	100	21	stimuli\movNat\waves\mn_waves03.jpg              	1	1	1	mn_waves03.jpg       	movNat   	3	waves     	38	waves03     	382	not_alive	0	moves	1	natural 	1	n	0	0    	 	0.0	0	72.3100389000028	72.4099335999927	0.099894699989818
49043	100	22	stimuli\movArt\boat\ma_boat03.jpg                	1	1	1	ma_boat03.jpg        	movArt   	2	boat      	2	boat03      	22	not_alive	0	moves	1	artefact	0	n	0	0    	 	0.0	0	72.46002470003441	72.55991660000291	0.0998918999684974
49193	100	23	stimuli\movNat\waterfall\mn_waterfall06.jpg      	1	1	1	mn_waterfall06.jpg   	movNat   	3	waterfall 	37	waterfall06 	375	not_alive	0	moves	1	natural 	1	n	1	0    	 	0.0	0	72.6100358000258	72.7099095999729	0.0998737999470904
49343	100	24	stimuli\plant\grass\plant_grass02.jpg            	1	1	1	plant_grass02.jpg    	plant    	6	grass     	17	grass02     	171	alive    	1	still	0	natural 	1	n	0	1    	f	0.250103799975477	1	72.7600188000361	72.85993510007391	0.0999163000378757
49493	100	25	stimuli\movArt\helicopter\ma_helicopter01.jpg    	1	1	1	ma_helicopter01.jpg  	movArt   	2	helicopter	19	helicopter01	190	not_alive	0	moves	1	artefact	0	n	0	0    	 	0.0	0	72.9100017000455	73.0099085000111	0.09990679996553802
49643	100	26	stimuli\nonmovArt\headphones\nma_headphones08.jpg	1	1	1	nma_headphones08.jpg 	nonmovArt	4	headphones	18	headphones08	187	not_alive	0	still	0	artefact	0	n	0	0    	 	0.0	0	73.06003110005992	73.1599214000162	0.0998902999563142
49793	100	27	stimuli\nonmovNat\rock\nmn_rock08.jpg            	1	1	1	nmn_rock08.jpg       	nonmovNat	5	rock      	30	rock08      	307	not_alive	0	still	0	natural 	1	n	0	0    	 	0.0	0	73.21000419999471	73.3099341000197	0.0999299000250175
49943	100	28	stimuli\nonmovNat\cliff\nmn_cliff06.jpg          	1	1	1	nmn_cliff06.jpg      	nonmovNat	5	cliff     	7	cliff06     	75	not_alive	0	still	0	natural 	1	n	0	0    	 	0.0	0	73.3600512000267	73.45990770007491	0.0998565000481903
50093	100	29	stimuli\animals\dolphin\animal_dolphin10.jpg     	1	1	1	animal_dolphin10.jpg 	animals  	0	dolphin   	12	dolphin10   	129	alive    	1	moves	1	natural 	1	n	0	0    	 	0.0	0	73.5100189000368	73.60992930002979	0.0999103999929502
50243	100	30	stimuli\nonmovArt\bench\nma_bench04.jpg          	1	1	1	nma_bench04.jpg      	nonmovArt	4	bench     	1	bench04     	13	not_alive	0	still	0	artefact	0	n	0	0    	 	0.0	0	73.6600040000631	73.7599422000349	0.0999381999718025
50393	100	31	stimuli\movNat\fire\mn_fire05.jpg                	1	1	1	mn_fire05.jpg        	movNat   	3	fire      	15	fire05      	154	not_alive	0	moves	1	natural 	1	n	0	0    	 	0.0	0	73.81002760003321	73.9099831000203	0.0999554999871179
50543	100	32	stimuli\nonmovArt\mug\nma_mug01.jpg              	1	1	1	nma_mug01.jpg        	nonmovArt	4	mug       	26	mug01       	260	not_alive	0	still	0	artefact	0	n	0	0    	 	0.0	0	73.9600648999913	74.0599031000165	0.0998382000252604
50693	100	33	stimuli\animals2\tiger\animal_tiger07.jpg        	1	1	1	animal_tiger07.jpg   	animals2 	1	tiger     	33	tiger07     	336	alive    	1	moves	1	natural 	1	n	0	0    	 	0.0	0	74.1099934000522	74.20989549998191	0.0999020999297499
50843	100	34	stimuli\nonmovArt\lock\nma_lock04.jpg            	1	1	1	nma_lock04.jpg       	nonmovArt	4	lock      	24	lock04      	243	not_alive	0	still	0	artefact	0	n	0	0    	 	0.0	0	74.26000680006109	74.3598833000287	0.0998764999676495
50993	100	35	stimuli\movNat\fire\mn_fire06.jpg                	1	1	1	mn_fire06.jpg        	movNat   	3	fire      	15	fire06      	155	not_alive	0	moves	1	natural 	1	n	0	0    	 	0.0	0	74.40997410006821	74.509899900062	0.0999257999937981
51143	100	36	stimuli\movNat\waterfall\mn_waterfall06.jpg      	1	1	1	mn_waterfall06.jpg   	movNat   	3	waterfall 	37	waterfall06 	375	not_alive	0	moves	1	natural 	1	n	0	0    	 	0.0	0	74.55997740000021	74.659880500054	0.0999031000537797
51293	100	37	stimuli\plant\tree\plant_tree04.jpg              	1	1	1	plant_tree04.jpg     	plant    	6	tree      	35	tree04      	353	alive    	1	still	0	natural 	1	n	0	0    	 	0.0	0	74.7100106000434	74.80990390002259	0.0998932999791577
51443	100	38	stimuli\animals\eagle\animal_eagle07.jpg         	1	1	1	animal_eagle07.jpg   	animals  	0	eagle     	13	eagle07     	136	alive    	1	moves	1	natural 	1	n	0	0    	 	0.0	0	74.8599874000065	74.9598909000633	0.0999035000568255
51593	100	39	stimuli\plant2\clover\plant_clover07.jpg         	1	1	1	plant_clover07.jpg   	plant2   	7	clover    	9	clover07    	96	alive    	1	still	0	natural 	1	n	0	0    	 	0.0	0	75.00999410008079	75.1098843000364	0.0998901999555528
51743	100	40	stimuli\plant\vine\plant_vine08.jpg              	1	1	1	plant_vine08.jpg     	plant    	6	vine      	36	vine08      	367	alive    	1	still	0	natural 	1	n	0	0    	 	0.0	0	75.1599768999731	75.2598852000665	0.0999083000933751
51893	100	41	stimuli\animals2\lemur\animal_lemur08.jpg        	1	1	1	animal_lemur08.jpg   	animals2 	1	lemur     	23	lemur08     	237	alive    	1	moves	1	natural 	1	n	0	0    	 	0.0	0	75.309990299982	75.4098920000251	0.0999017000431194
52043	100	42	stimuli\nonmovArt\bench\nma_bench02.jpg          	1	1	1	nma_bench02.jpg      	nonmovArt	4	bench     	1	bench02     	11	not_alive	0	still	0	artefact	0	n	0	0    	 	0.0	0	75.4600043999963	75.5599012000021	0.0998968000058084
52193	100	43	stimuli\movNat\river\mn_river04.jpg              	1	1	1	mn_river04.jpg       	movNat   	3	river     	29	river04     	293	not_alive	0	moves	1	natural 	1	n	0	0    	 	0.0	0	75.60990270005999	75.7099971000571	0.10009439999703301
52343	100	44	stimuli\plant\grass\plant_grass06.jpg            	1	1	1	plant_grass06.jpg    	plant    	6	grass     	17	grass06     	175	alive    	1	still	0	natural 	1	n	0	0    	 	0.0	0	75.7600084000733	75.8598876000615	0.0998791999882087
52493	100	45	stimuli\plant2\moss\plant_moss09.jpg             	1	1	1	plant_moss09.jpg     	plant2   	7	moss      	25	moss09      	258	alive    	1	still	0	natural 	1	n	0	0    	 	0.0	0	75.91000190004709	76.0098721999675	0.0998702999204397
52643	100	46	stimuli\nonmovArt\bench\nma_bench01.jpg          	1	1	1	nma_bench01.jpg      	nonmovArt	4	bench     	1	bench01     	10	not_alive	0	still	0	artefact	0	n	0	0    	 	0.0	0	76.0599836000474	76.15984640002719	0.0998627999797463
52793	100	47	stimuli\plant\cactus\plant_cactus03.jpg          	1	1	1	plant_cactus03.jpg   	plant    	6	cactus    	4	cactus03    	42	alive    	1	still	0	natural 	1	n	0	0    	 	0.0	0	76.20997259998691	76.3098809000803	0.0999083000933751
52943	100	48	stimuli\animals2\bee\animal_bee06.jpg            	1	1	1	animal_bee06.jpg     	animals2 	1	bee       	0	bee06       	5	alive    	1	moves	1	natural 	1	n	0	0    	 	0.0	0	76.359958200017	76.4598812999902	0.099923099973239
53093	100	49	stimuli\animals2\lemur\animal_lemur02.jpg        	1	1	1	animal_lemur02.jpg   	animals2 	1	lemur     	23	lemur02     	231	alive    	1	moves	1	natural 	1	n	0	0    	 	0.0	0	76.5099953999743	76.6098732000683	0.0998778000939637
53243	100	50	stimuli\nonmovNat\shell\nmn_shell10.jpg          	1	1	1	nmn_shell10.jpg      	nonmovNat	5	shell     	32	shell10     	329	not_alive	0	still	0	natural 	1	n	0	0    	 	0.0	0	76.65998950006909	76.75989780004599	0.0999082999769598
53393	100	51	stimuli\animals\dolphin\animal_dolphin08.jpg     	1	1	1	animal_dolphin08.jpg 	animals  	0	dolphin   	12	dolphin08   	127	alive    	1	moves	1	natural 	1	n	0	0    	 	0.0	0	76.8100002000574	76.9098726999946	0.0998724999371916
53543	100	52	stimuli\nonmovNat\shell\nmn_shell05.jpg          	1	1	1	nmn_shell05.jpg      	nonmovNat	5	shell     	32	shell05     	324	not_alive	0	still	0	natural 	1	n	0	0    	 	0.0	0	76.95994830003471	77.059888400021	0.09994009998627
53693	100	53	stimuli\plant\cactus\plant_cactus04.jpg          	1	1	1	plant_cactus04.jpg   	plant    	6	cactus    	4	cactus04    	43	alive    	1	still	0	natural 	1	n	0	0    	 	0.0	0	77.10996689996679	77.20990240003451	0.0999355000676587
53843	100	54	stimuli\movNat\waterfall\mn_waterfall10.jpg      	1	1	1	mn_waterfall10.jpg   	movNat   	3	waterfall 	37	waterfall10 	379	not_alive	0	moves	1	natural 	1	n	0	0    	 	0.0	0	77.2599599000532	77.35987619997469	0.0999162999214604
53993	100	55	stimuli\plant\tree\plant_tree07.jpg              	1	1	1	plant_tree07.jpg     	plant    	6	tree      	35	tree07      	356	alive    	1	still	0	natural 	1	n	0	0    	 	0.0	0	77.4100756000262	77.50991620006971	0.0998406000435352
54143	100	56	stimuli\plant\flower\plant_flower07.jpg          	1	1	1	plant_flower07.jpg   	plant    	6	flower    	16	flower07    	166	alive    	1	still	0	natural 	1	n	0	0    	 	0.0	0	77.55995909997729	77.6598616000265	0.09990250004921099
54293	100	57	stimuli\nonmovArt\clothespeg\nma_clothespeg02.jpg	1	1	1	nma_clothespeg02.jpg 	nonmovArt	4	clothespeg	8	clothespeg02	81	not_alive	0	still	0	artefact	0	n	0	0    	 	0.0	0	77.709898400004	77.8098911000416	0.0999927000375464
54443	100	58	stimuli\nonmovNat\rock\nmn_rock02.jpg            	1	1	1	nmn_rock02.jpg       	nonmovNat	5	rock      	30	rock02      	301	not_alive	0	still	0	natural 	1	n	0	1    	f	0.0	0	77.8599732000148	77.95989469997579	0.0999214999610558
54593	100	59	stimuli\animals\horse\animal_horse01.jpg         	1	1	1	animal_horse01.jpg   	animals  	0	horse     	20	horse01     	200	alive    	1	moves	1	natural 	1	n	0	0    	 	0.0	0	78.0099448000547	78.1098621999845	0.0999173999298364
54743	100	60	stimuli\nonmovNat\crystal\nmn_crystal04.jpg      	1	1	1	nmn_crystal04.jpg    	nonmovNat	5	crystal   	10	crystal04   	103	not_alive	0	still	0	natural 	1	n	0	0    	 	0.0	0	78.1599459999707	78.25986029999329	0.0999143000226467
54893	100	61	stimuli\plant\cactus\plant_cactus03.jpg          	1	1	1	plant_cactus03.jpg   	plant    	6	cactus    	4	cactus03    	42	alive    	1	still	0	natural 	1	n	0	0    	 	0.0	0	78.30995410005559	78.40985850000291	0.0999043999472633
55043	100	62	stimuli\movNat\fire\mn_fire06.jpg                	1	1	1	mn_fire06.jpg        	movNat   	3	fire      	15	fire06      	155	not_alive	0	moves	1	natural 	1	n	0	0    	 	0.0	0	78.4599527000682	78.5598659999669	0.0999132998986169
55193	100	63	stimuli\animals\dog\animal_dog02.jpg             	1	1	1	animal_dog02.jpg     	animals  	0	dog       	11	dog02       	111	alive    	1	moves	1	natural 	1	n	0	0    	 	0.0	0	78.6099163000472	78.7098517999984	0.0999354999512434
55343	100	64	stimuli\animals\dog\animal_dog01.jpg             	1	1	1	animal_dog01.jpg     	animals  	0	dog       	11	dog01       	110	alive    	1	moves	1	natural 	1	n	0	0    	 	0.0	0	78.75994400004859	78.8598530000308	0.0999089999822899
55493	100	65	stimuli\plant2\palmtree\plant_palmtree10.jpg     	1	1	1	plant_palmtree10.jpg 	plant2   	7	palmtree  	27	palmtree10  	279	alive    	1	still	0	natural 	1	n	0	0    	 	0.0	0	78.9099329999881	79.0098870000802	0.0999540000921115
55643	100	66	stimuli\animals2\pigeon\animal_pigeon03.jpg      	1	1	1	animal_pigeon03.jpg  	animals2 	1	pigeon    	28	pigeon03    	282	alive    	1	moves	1	natural 	1	n	0	0    	 	0.0	0	79.0599317000015	79.1598841000814	0.0999524000799283
55793	100	67	stimuli\plant2\fern\plant_fern06.jpg             	1	1	1	plant_fern06.jpg     	plant2   	7	fern      	14	fern06      	145	alive    	1	still	0	natural 	1	n	1	0    	 	0.0	0	79.2100325999782	79.30987150000871	0.0998389000305906
55943	100	68	stimuli\nonmovNat\sand\nmn_sand02.jpg            	1	1	1	nmn_sand02.jpg       	nonmovNat	5	sand      	31	sand02      	311	not_alive	0	still	0	natural 	1	n	0	0    	 	0.0	0	79.3599411000032	79.4598418000387	0.099900700035505
56093	100	69	stimuli\plant2\lemontree\plant_lemontree09.jpg   	1	1	1	plant_lemontree09.jpg	plant2   	7	lemontree 	22	lemontree09 	228	alive    	1	still	0	natural 	1	n	0	0    	 	0.0	0	79.5099684000015	79.60985530004841	0.0998869000468403
56243	100	70	stimuli\movArt\car\ma_car03.jpg                  	1	1	1	ma_car03.jpg         	movArt   	2	car       	5	car03       	52	not_alive	0	moves	1	artefact	0	n	0	0    	 	0.0	0	79.6599302999675	79.7598430999788	0.099912800011225
56393	100	71	stimuli\animals\horse\animal_horse02.jpg         	1	1	1	animal_horse02.jpg   	animals  	0	horse     	20	horse02     	201	alive    	1	moves	1	natural 	1	n	0	0    	 	0.0	0	79.8099513000343	79.9098821000662	0.0999308000318706
56543	100	72	stimuli\movArt\bus\ma_bus04.jpg                  	1	1	1	ma_bus04.jpg         	movArt   	2	bus       	3	bus04       	33	not_alive	0	moves	1	artefact	0	n	0	0    	 	0.0	0	79.95996000000741	80.0598654000787	0.0999054000712931
56693	100	73	stimuli\animals2\whale\animal_whale08.jpg        	1	1	1	animal_whale08.jpg   	animals2 	1	whale     	39	whale08     	397	alive    	1	moves	1	natural 	1	n	0	0    	 	0.0	0	80.109939099988	80.20986419997641	0.099925099988468
56843	100	74	stimuli\nonmovNat\shell\nmn_shell09.jpg          	1	1	1	nmn_shell09.jpg      	nonmovNat	5	shell     	32	shell09     	328	not_alive	0	still	0	natural 	1	n	0	0    	 	0.0	0	80.25993820000441	80.35984310007191	0.0999049000674858
56993	100	75	stimuli\plant2\clover\plant_clover05.jpg         	1	1	1	plant_clover05.jpg   	plant2   	7	clover    	9	clover05    	94	alive    	1	still	0	natural 	1	n	0	0    	 	0.0	0	80.4099685000256	80.5098533000564	0.0998848000308498
57143	100	76	stimuli\plant\vine\plant_vine03.jpg              	1	1	1	plant_vine03.jpg     	plant    	6	vine      	36	vine03      	362	alive    	1	still	0	natural 	1	n	0	0    	 	0.0	0	80.5599416000768	80.65987179998771	0.0999301999108866
57293	100	77	stimuli\movNat\hotspring\mn_hotspring09.jpg      	1	1	1	mn_hotspring09.jpg   	movNat   	3	hotspring 	21	hotspring09 	218	not_alive	0	moves	1	natural 	1	n	0	0    	 	0.0	0	80.7099470000248	80.80984110001009	0.0998940999852493
57443	100	78	stimuli\nonmovArt\mug\nma_mug02.jpg              	1	1	1	nma_mug02.jpg        	nonmovArt	4	mug       	26	mug02       	261	not_alive	0	still	0	artefact	0	n	0	0    	 	0.0	0	80.8599265000084	80.95995649998079	0.100029999972321
57593	100	79	stimuli\nonmovNat\cliff\nmn_cliff09.jpg          	1	1	1	nmn_cliff09.jpg      	nonmovNat	5	cliff     	7	cliff09     	78	not_alive	0	still	0	natural 	1	n	0	0    	 	0.0	0	81.0101190999849	81.1090644000797	0.0989453000947833
60959	100	80	stimuli\movNat\waves\mn_waves03.jpg              	1	2	1	mn_waves03.jpg       	movNat   	3	waves     	38	waves03     	382	not_alive	0	moves	1	natural 	1	n	0	0    	 	0.0	0	84.3757062000223	84.475691700005	0.0999854999827221
61109	100	81	stimuli\animals2\pigeon\animal_pigeon08.jpg      	1	2	1	animal_pigeon08.jpg  	animals2 	1	pigeon    	28	pigeon08    	287	alive    	1	moves	1	natural 	1	n	0	0    	 	0.0	0	84.52570130000821	84.62569290003741	0.0999916000291705
61259	100	82	stimuli\plant\flower\plant_flower08.jpg          	1	2	1	plant_flower08.jpg   	plant    	6	flower    	16	flower08    	167	alive    	1	still	0	natural 	1	n	0	0    	 	0.0	0	84.67569870001171	84.77568730001799	0.09998860000632699
61409	100	83	stimuli\plant\tree\plant_tree08.jpg              	1	2	1	plant_tree08.jpg     	plant    	6	tree      	35	tree08      	357	alive    	1	still	0	natural 	1	n	0	0    	 	0.0	0	84.82569650001821	84.925689100055	0.099992600036785
61559	100	84	stimuli\movArt\helicopter\ma_helicopter08.jpg    	1	2	1	ma_helicopter08.jpg  	movArt   	2	helicopter	19	helicopter08	197	not_alive	0	moves	1	artefact	0	n	0	0    	 	0.0	0	84.9756956000347	85.07568440004249	0.0999888000078499
61709	100	85	stimuli\animals\cat\animal_cat06.jpg             	1	2	1	animal_cat06.jpg     	animals  	0	cat       	6	cat06       	65	alive    	1	moves	1	natural 	1	n	0	0    	 	0.0	0	85.1256944000488	85.22568280005359	0.0999884000048041
61859	100	86	stimuli\nonmovArt\mug\nma_mug09.jpg              	1	2	1	nma_mug09.jpg        	nonmovArt	4	mug       	26	mug09       	268	not_alive	0	still	0	artefact	0	n	0	0    	 	0.0	0	85.2756931000622	85.37568150006699	0.0999884000048041
62009	100	87	stimuli\nonmovArt\headphones\nma_headphones09.jpg	1	2	1	nma_headphones09.jpg 	nonmovArt	4	headphones	18	headphones09	188	not_alive	0	still	0	artefact	0	n	0	0    	 	0.0	0	85.4256923000794	85.52568329998759	0.0999909999081865
62159	100	88	stimuli\animals2\bee\animal_bee02.jpg            	1	2	1	animal_bee02.jpg     	animals2 	1	bee       	0	bee02       	1	alive    	1	moves	1	natural 	1	n	0	0    	 	0.0	0	85.5756947000045	85.6756804999896	0.0999857999850064
62309	100	89	stimuli\nonmovNat\crystal\nmn_crystal01.jpg      	1	2	1	nmn_crystal01.jpg    	nonmovNat	5	crystal   	10	crystal01   	100	not_alive	0	still	0	natural 	1	n	0	0    	 	0.0	0	85.7256903999951	85.82567950000521	0.0999891000101342
62459	100	90	stimuli\plant2\moss\plant_moss08.jpg             	1	2	1	plant_moss08.jpg     	plant2   	7	moss      	25	moss08      	257	alive    	1	still	0	natural 	1	n	0	0    	 	0.0	0	85.8756885000039	85.97567459999121	0.0999860999872908
62609	100	91	stimuli\movArt\bus\ma_bus02.jpg                  	1	2	1	ma_bus02.jpg         	movArt   	2	bus       	3	bus02       	31	not_alive	0	moves	1	artefact	0	n	0	0    	 	0.0	0	86.02568810002408	86.12567860004489	0.0999905000207945
62759	100	92	stimuli\animals2\bee\animal_bee08.jpg            	1	2	1	animal_bee08.jpg     	animals2 	1	bee       	0	bee08       	7	alive    	1	moves	1	natural 	1	n	0	0    	 	0.0	0	86.17568590003071	86.2756737000309	0.0999878000002354
62909	100	93	stimuli\plant2\lemontree\plant_lemontree08.jpg   	1	2	1	plant_lemontree08.jpg	plant2   	7	lemontree 	22	lemontree08 	227	alive    	1	still	0	natural 	1	n	0	0    	 	0.0	0	86.32568480004558	86.4256716000382	0.0999867999926209
63059	100	94	stimuli\movNat\hotspring\mn_hotspring06.jpg      	1	2	1	mn_hotspring06.jpg   	movNat   	3	hotspring 	21	hotspring06 	215	not_alive	0	moves	1	natural 	1	n	0	0    	 	0.0	0	86.4756826000521	86.57566810003479	0.0999854999827221
63209	100	95	stimuli\nonmovArt\headphones\nma_headphones10.jpg	1	2	1	nma_headphones10.jpg 	nonmovArt	4	headphones	18	headphones10	189	not_alive	0	still	0	artefact	0	n	0	0    	 	0.0	0	86.6256817000685	86.72567289997819	0.0999911999097094
63359	100	96	stimuli\nonmovNat\crystal\nmn_crystal03.jpg      	1	2	1	nmn_crystal03.jpg    	nonmovNat	5	crystal   	10	crystal03   	102	not_alive	0	still	0	natural 	1	n	0	0    	 	0.0	0	86.7756785000674	86.87570149998649	0.10002299991902001
63509	100	97	stimuli\plant2\fern\plant_fern02.jpg             	1	2	1	plant_fern02.jpg     	plant2   	7	fern      	14	fern02      	141	alive    	1	still	0	natural 	1	n	0	0    	 	0.0	0	86.9256768000778	87.0256692999974	0.0999924999196082
63659	100	98	stimuli\plant2\fern\plant_fern08.jpg             	1	2	1	plant_fern08.jpg     	plant2   	7	fern      	14	fern08      	147	alive    	1	still	0	natural 	1	n	0	0    	 	0.0	0	87.0756761999801	87.1756639999803	0.0999878000002354
63809	100	99	stimuli\animals\horse\animal_horse03.jpg         	1	2	1	animal_horse03.jpg   	animals  	0	horse     	20	horse03     	202	alive    	1	moves	1	natural 	1	n	0	0    	 	0.0	0	87.2256751999957	87.3256646000082	0.0999894000124186
63959	100	100	stimuli\animals\eagle\animal_eagle05.jpg         	1	2	1	animal_eagle05.jpg   	animals  	0	eagle     	13	eagle05     	134	alive    	1	moves	1	natural 	1	n	0	0    	 	0.0	0	87.3756813000655	87.4756651000353	0.0999837999697774
64109	100	101	stimuli\movArt\train\ma_train01.jpg              	1	2	1	ma_train01.jpg       	movArt   	2	train     	34	train01     	340	not_alive	0	moves	1	artefact	0	n	0	0    	 	0.0	0	87.5256699000019	87.62566290004179	0.0999930000398308
64259	100	102	stimuli\movArt\boat\ma_boat08.jpg                	1	2	1	ma_boat08.jpg        	movArt   	2	boat      	2	boat08      	27	not_alive	0	moves	1	artefact	0	n	0	0    	 	0.0	0	87.67567240004429	87.77566000004299	0.0999875999987125
64409	100	103	stimuli\animals2\lemur\animal_lemur04.jpg        	1	2	1	animal_lemur04.jpg   	animals2 	1	lemur     	23	lemur04     	233	alive    	1	moves	1	natural 	1	n	0	0    	 	0.0	0	87.8256694000447	87.92565880005709	0.0999894000124186
64559	100	104	stimuli\animals2\tiger\animal_tiger10.jpg        	1	2	1	animal_tiger10.jpg   	animals2 	1	tiger     	33	tiger10     	339	alive    	1	moves	1	natural 	1	n	0	0    	 	0.0	0	87.9756665000459	88.07565860007891	0.0999921000329777
64709	100	105	stimuli\plant\flower\plant_flower05.jpg          	1	2	1	plant_flower05.jpg   	plant    	6	flower    	16	flower05    	164	alive    	1	still	0	natural 	1	n	0	0    	 	0.0	0	88.12566969997721	88.2256567999721	0.0999870999949052
64859	100	106	stimuli\movNat\hotspring\mn_hotspring07.jpg      	1	2	1	mn_hotspring07.jpg   	movNat   	3	hotspring 	21	hotspring07 	216	not_alive	0	moves	1	natural 	1	n	0	0    	 	0.0	0	88.2756692999974	88.3756537999725	0.0999844999751076
65009	100	107	stimuli\animals\eagle\animal_eagle05.jpg         	1	2	1	animal_eagle05.jpg   	animals  	0	eagle     	13	eagle05     	134	alive    	1	moves	1	natural 	1	n	0	0    	 	0.0	0	88.42566409998109	88.52565389999648	0.0999898000154644
65159	100	108	stimuli\nonmovArt\lock\nma_lock04.jpg            	1	2	1	nma_lock04.jpg       	nonmovArt	4	lock      	24	lock04      	243	not_alive	0	still	0	artefact	0	n	0	0    	 	0.0	0	88.5756630999968	88.6756541000213	0.0999910000246018
65309	100	109	stimuli\movNat\river\mn_river10.jpg              	1	2	1	mn_river10.jpg       	movNat   	3	river     	29	river10     	299	not_alive	0	moves	1	natural 	1	n	0	0    	 	0.0	0	88.72565919999029	88.82565330003858	0.0999941000482067
65459	100	110	stimuli\movArt\car\ma_car02.jpg                  	1	2	1	ma_car02.jpg         	movArt   	2	car       	5	car02       	51	not_alive	0	moves	1	artefact	0	n	0	0    	 	0.0	0	88.8756604000228	88.97564720001542	0.0999867999926209
65609	100	111	stimuli\animals\dolphin\animal_dolphin04.jpg     	1	2	1	animal_dolphin04.jpg 	animals  	0	dolphin   	12	dolphin04   	123	alive    	1	moves	1	natural 	1	n	0	0    	 	0.0	0	89.0256570000202	89.1256531999679	0.0999961999477818
65759	100	112	stimuli\animals\dog\animal_dog06.jpg             	1	2	1	animal_dog06.jpg     	animals  	0	dog       	11	dog06       	115	alive    	1	moves	1	natural 	1	n	0	0    	 	0.0	0	89.1756854000268	89.275649700081	0.0999643000541254
65909	100	113	stimuli\nonmovArt\clothespeg\nma_clothespeg07.jpg	1	2	1	nma_clothespeg07.jpg 	nonmovArt	4	clothespeg	8	clothespeg07	86	not_alive	0	still	0	artefact	0	n	0	0    	 	0.0	0	89.3256572000682	89.4256454000715	0.0999882000032812
66059	100	114	stimuli\movArt\helicopter\ma_helicopter07.jpg    	1	2	1	ma_helicopter07.jpg  	movArt   	2	helicopter	19	helicopter07	196	not_alive	0	moves	1	artefact	0	n	0	0    	 	0.0	0	89.4756542000687	89.57564200006891	0.0999878000002354
66209	100	115	stimuli\plant\vine\plant_vine10.jpg              	1	2	1	plant_vine10.jpg     	plant    	6	vine      	36	vine10      	369	alive    	1	still	0	natural 	1	n	0	0    	 	0.0	0	89.6256518000737	89.7256456000032	0.09999379992950698
66359	100	116	stimuli\animals\cat\animal_cat09.jpg             	1	2	1	animal_cat09.jpg     	animals  	0	cat       	6	cat09       	68	alive    	1	moves	1	natural 	1	n	0	0    	 	0.0	0	89.7756510999752	89.8756405999884	0.09998950001317998
66509	100	117	stimuli\movNat\waves\mn_waves02.jpg              	1	2	1	mn_waves02.jpg       	movNat   	3	waves     	38	waves02     	381	not_alive	0	moves	1	natural 	1	n	0	0    	 	0.0	0	89.9256505999947	90.0256400000071	0.0999894000124186
66659	100	118	stimuli\movArt\train\ma_train02.jpg              	1	2	1	ma_train02.jpg       	movArt   	2	train     	34	train02     	341	not_alive	0	moves	1	artefact	0	n	1	0    	 	0.0	0	90.07564990001259	90.1756371000083	0.0999871999956667
66809	100	119	stimuli\nonmovNat\sand\nmn_sand02.jpg            	1	2	1	nmn_sand02.jpg       	nonmovNat	5	sand      	31	sand02      	311	not_alive	0	still	0	natural 	1	n	0	0    	 	0.0	0	90.2256508000428	90.3256388000446	0.0999880000017583
66959	100	120	stimuli\movNat\fire\mn_fire01.jpg                	1	2	1	mn_fire01.jpg        	movNat   	3	fire      	15	fire01      	150	not_alive	0	moves	1	natural 	1	n	0	1    	f	0.40017639996949605	1	90.3756453000242	90.4756390000694	0.0999937000451609
67109	100	121	stimuli\nonmovNat\crystal\nmn_crystal01.jpg      	1	2	1	nmn_crystal01.jpg    	nonmovNat	5	crystal   	10	crystal01   	100	not_alive	0	still	0	natural 	1	n	1	0    	 	0.0	0	90.5256441000383	90.6256350000622	0.0999909000238403
67259	100	122	stimuli\plant\cactus\plant_cactus08.jpg          	1	2	1	plant_cactus08.jpg   	plant    	6	cactus    	4	cactus08    	47	alive    	1	still	0	natural 	1	n	0	0    	 	0.0	0	90.67564230004791	90.7756320000626	0.0999897000147029
67409	100	123	stimuli\animals2\pigeon\animal_pigeon07.jpg      	1	2	1	animal_pigeon07.jpg  	animals2 	1	pigeon    	28	pigeon07    	286	alive    	1	moves	1	natural 	1	n	0	0    	 	0.0	0	90.825642800075	90.9256421000464	0.0999992999713868
67559	100	124	stimuli\animals2\whale\animal_whale06.jpg        	1	2	1	animal_whale06.jpg   	animals2 	1	whale     	39	whale06     	395	alive    	1	moves	1	natural 	1	n	1	0    	 	0.0	0	90.97565909998958	91.0756576000713	0.0999985000817105
67709	100	125	stimuli\plant2\lemontree\plant_lemontree08.jpg   	1	2	1	plant_lemontree08.jpg	plant2   	7	lemontree 	22	lemontree08 	227	alive    	1	still	0	natural 	1	n	0	0    	 	0.0	0	91.1256392999785	91.22562959999779	0.0999903000192716
67859	100	126	stimuli\animals\eagle\animal_eagle04.jpg         	1	2	1	animal_eagle04.jpg   	animals  	0	eagle     	13	eagle04     	133	alive    	1	moves	1	natural 	1	n	0	1    	f	0.392073200084269	1	91.2756382999942	91.3756276000058	0.0999893000116571
68009	100	127	stimuli\plant2\fern\plant_fern04.jpg             	1	2	1	plant_fern04.jpg     	plant2   	7	fern      	14	fern04      	143	alive    	1	still	0	natural 	1	n	0	0    	 	0.0	0	91.42563740001059	91.52562640001999	0.0999890000093728
68159	100	128	stimuli\movNat\fire\mn_fire03.jpg                	1	2	1	mn_fire03.jpg        	movNat   	3	fire      	15	fire03      	152	not_alive	0	moves	1	natural 	1	n	0	0    	 	0.0	0	91.5756372000324	91.6756264000433	0.0999892000108957
68309	100	129	stimuli\animals2\lemur\animal_lemur01.jpg        	1	2	1	animal_lemur01.jpg   	animals2 	1	lemur     	23	lemur01     	230	alive    	1	moves	1	natural 	1	n	0	0    	 	0.0	0	91.72563310002441	91.82562370004601	0.099990600021556
68459	100	130	stimuli\movArt\car\ma_car09.jpg                  	1	2	1	ma_car09.jpg         	movArt   	2	car       	5	car09       	58	not_alive	0	moves	1	artefact	0	n	0	0    	 	0.0	0	91.8756332000485	91.9756186000304	0.0999853999819606
68609	100	131	stimuli\plant2\palmtree\plant_palmtree01.jpg     	1	2	1	plant_palmtree01.jpg 	plant2   	7	palmtree  	27	palmtree01  	270	alive    	1	still	0	natural 	1	n	0	0    	 	0.0	0	92.02562980004579	92.12562399997842	0.0999941999325528
68759	100	132	stimuli\nonmovNat\sand\nmn_sand06.jpg            	1	2	1	nmn_sand06.jpg       	nonmovNat	5	sand      	31	sand06      	315	not_alive	0	still	0	natural 	1	n	0	0    	 	0.0	0	92.17562870006081	92.27562029997351	0.0999915999127552
68909	100	133	stimuli\animals2\pigeon\animal_pigeon03.jpg      	1	2	1	animal_pigeon03.jpg  	animals2 	1	pigeon    	28	pigeon03    	282	alive    	1	moves	1	natural 	1	n	0	0    	 	0.0	0	92.32562899996991	92.42561959999149	0.099990600021556
69059	100	134	stimuli\plant\grass\plant_grass05.jpg            	1	2	1	plant_grass05.jpg    	plant    	6	grass     	17	grass05     	174	alive    	1	still	0	natural 	1	n	0	0    	 	0.0	0	92.47562629997259	92.57561409997291	0.0999878000002354
69210	100	135	stimuli\nonmovNat\cliff\nmn_cliff10.jpg          	1	2	1	nmn_cliff10.jpg      	nonmovNat	5	cliff     	7	cliff10     	79	not_alive	0	still	0	natural 	1	n	0	0    	 	0.0	0	92.6264890000457	92.726502000005	0.10001299995928999
69360	100	136	stimuli\nonmovNat\shell\nmn_shell03.jpg          	1	2	1	nmn_shell03.jpg      	nonmovNat	5	shell     	32	shell03     	322	not_alive	0	still	0	natural 	1	n	0	0    	 	0.0	0	92.7765370999696	92.8764394000173	0.0999023000476882
69510	100	137	stimuli\animals2\tiger\animal_tiger08.jpg        	1	2	1	animal_tiger08.jpg   	animals2 	1	tiger     	33	tiger08     	337	alive    	1	moves	1	natural 	1	n	0	0    	 	0.0	0	92.9264557000715	93.02638449997178	0.0999287999002263
69660	100	138	stimuli\nonmovArt\bench\nma_bench08.jpg          	1	2	1	nma_bench08.jpg      	nonmovArt	4	bench     	1	bench08     	17	not_alive	0	still	0	artefact	0	n	0	0    	 	0.0	0	93.0764826000668	93.1763603000436	0.0998776999767869
69810	100	139	stimuli\nonmovArt\clothespeg\nma_clothespeg06.jpg	1	2	1	nma_clothespeg06.jpg 	nonmovArt	4	clothespeg	8	clothespeg06	85	not_alive	0	still	0	artefact	0	n	0	0    	 	0.0	0	93.2264738000231	93.3263726000441	0.0998988000210374
69960	100	140	stimuli\movArt\boat\ma_boat06.jpg                	1	2	1	ma_boat06.jpg        	movArt   	2	boat      	2	boat06      	25	not_alive	0	moves	1	artefact	0	n	0	0    	 	0.0	0	93.37644640007059	93.47637130005751	0.099924899986945
70110	100	141	stimuli\plant2\palmtree\plant_palmtree09.jpg     	1	2	1	plant_palmtree09.jpg 	plant2   	7	palmtree  	27	palmtree09  	278	alive    	1	still	0	natural 	1	n	0	0    	 	0.0	0	93.52647979999891	93.62637980002908	0.0999000000301748
70260	100	142	stimuli\animals\dog\animal_dog10.jpg             	1	2	1	animal_dog10.jpg     	animals  	0	dog       	11	dog10       	119	alive    	1	moves	1	natural 	1	n	0	0    	 	0.0	0	93.67645809997342	93.7763593000127	0.0999012000393122
70410	100	143	stimuli\plant\tree\plant_tree09.jpg              	1	2	1	plant_tree09.jpg     	plant    	6	tree      	35	tree09      	358	alive    	1	still	0	natural 	1	n	0	0    	 	0.0	0	93.8264644000446	93.9263872000156	0.0999227999709546
70560	100	144	stimuli\movArt\train\ma_train06.jpg              	1	2	1	ma_train06.jpg       	movArt   	2	train     	34	train06     	345	not_alive	0	moves	1	artefact	0	n	0	0    	 	0.0	0	93.97646290005649	94.07637290004641	0.0999099999899044
70710	100	145	stimuli\nonmovArt\headphones\nma_headphones05.jpg	1	2	1	nma_headphones05.jpg 	nonmovArt	4	headphones	18	headphones05	184	not_alive	0	still	0	artefact	0	n	1	0    	 	0.0	0	94.1264491999755	94.22636089997829	0.0999117000028491
70860	100	146	stimuli\movNat\river\mn_river06.jpg              	1	2	1	mn_river06.jpg       	movNat   	3	river     	29	river06     	295	not_alive	0	moves	1	natural 	1	n	0	0    	 	0.0	0	94.2764597000787	94.3763594999909	0.0998997999122366
71010	100	147	stimuli\animals2\bee\animal_bee05.jpg            	1	2	1	animal_bee05.jpg     	animals2 	1	bee       	0	bee05       	4	alive    	1	moves	1	natural 	1	n	0	0    	 	0.0	0	94.42645180004179	94.52642790006941	0.0999761000275612
71160	100	148	stimuli\nonmovNat\rock\nmn_rock09.jpg            	1	2	1	nmn_rock09.jpg       	nonmovNat	5	rock      	30	rock09      	308	not_alive	0	still	0	natural 	1	n	0	0    	 	0.0	0	94.57655850006269	94.676401100005	0.0998425999423489
71310	100	149	stimuli\nonmovNat\cliff\nmn_cliff04.jpg          	1	2	1	nmn_cliff04.jpg      	nonmovNat	5	cliff     	7	cliff04     	73	not_alive	0	still	0	natural 	1	n	0	1    	f	0.691976600093767	1	94.72644380002751	94.8263694000198	0.0999255999922752
71460	100	150	stimuli\animals\horse\animal_horse05.jpg         	1	2	1	animal_horse05.jpg   	animals  	0	horse     	20	horse05     	204	alive    	1	moves	1	natural 	1	n	0	0    	 	0.0	0	94.87644999998159	94.97634240007031	0.09989240008872001
71610	100	151	stimuli\nonmovArt\mug\nma_mug09.jpg              	1	2	1	nma_mug09.jpg        	nonmovArt	4	mug       	26	mug09       	268	not_alive	0	still	0	artefact	0	n	0	1    	f	0.891992900054902	1	95.0264384000329	95.12638759997209	0.0999491999391466
71760	100	152	stimuli\plant\tree\plant_tree04.jpg              	1	2	1	plant_tree04.jpg     	plant    	6	tree      	35	tree04      	353	alive    	1	still	0	natural 	1	n	0	0    	 	0.0	0	95.1764485000167	95.27637009997851	0.0999215999618172
71910	100	153	stimuli\plant\vine\plant_vine03.jpg              	1	2	1	plant_vine03.jpg     	plant    	6	vine      	36	vine03      	362	alive    	1	still	0	natural 	1	n	0	0    	 	0.0	0	95.326442199992	95.42635670001621	0.0999145000241696
72060	100	154	stimuli\plant\vine\plant_vine09.jpg              	1	2	1	plant_vine09.jpg     	plant    	6	vine      	36	vine09      	368	alive    	1	still	0	natural 	1	n	0	0    	 	0.0	0	95.4764442000305	95.5763418000424	0.0998976000119
72210	100	155	stimuli\movArt\helicopter\ma_helicopter10.jpg    	1	2	1	ma_helicopter10.jpg  	movArt   	2	helicopter	19	helicopter10	199	not_alive	0	moves	1	artefact	0	n	0	0    	 	0.0	0	95.62644859997091	95.72636159998359	0.0999130000127479
72360	100	156	stimuli\nonmovNat\crystal\nmn_crystal07.jpg      	1	2	1	nmn_crystal07.jpg    	nonmovNat	5	crystal   	10	crystal07   	106	not_alive	0	still	0	natural 	1	n	0	0    	 	0.0	0	95.7764378000284	95.8763474000152	0.0999095999868586
72510	100	157	stimuli\plant2\moss\plant_moss10.jpg             	1	2	1	plant_moss10.jpg     	plant2   	7	moss      	25	moss10      	259	alive    	1	still	0	natural 	1	n	0	0    	 	0.0	0	95.92644519999159	96.0263475000393	0.0999023000476882
72660	100	158	stimuli\movNat\fire\mn_fire01.jpg                	1	2	1	mn_fire01.jpg        	movNat   	3	fire      	15	fire01      	150	not_alive	0	moves	1	natural 	1	n	0	0    	 	0.0	0	96.0764338000445	96.17634900007391	0.0999152000294998
72809	100	159	stimuli\animals\dog\animal_dog09.jpg             	1	2	1	animal_dog09.jpg     	animals  	0	dog       	11	dog09       	118	alive    	1	moves	1	natural 	1	n	0	0    	 	0.0	0	96.22632979997441	96.3264540000819	0.10012420010753
76476	100	160	stimuli\plant2\lemontree\plant_lemontree09.jpg   	1	3	1	plant_lemontree09.jpg	plant2   	7	lemontree 	22	lemontree09 	228	alive    	1	still	0	natural 	1	n	0	0    	 	0.0	0	99.8930766000412	99.9929770000744	0.0999004000332206
76626	100	161	stimuli\movNat\waves\mn_waves08.jpg              	1	3	1	mn_waves08.jpg       	movNat   	3	waves     	38	waves08     	387	not_alive	0	moves	1	natural 	1	n	0	0    	 	0.0	0	100.043066499988	100.142979199998	0.0999127000104636
76776	100	162	stimuli\animals2\bee\animal_bee05.jpg            	1	3	1	animal_bee05.jpg     	animals2 	1	bee       	0	bee05       	4	alive    	1	moves	1	natural 	1	n	0	0    	 	0.0	0	100.19305660005199	100.292980100028	0.0999234999762848
76926	100	163	stimuli\plant2\palmtree\plant_palmtree08.jpg     	1	3	1	plant_palmtree08.jpg 	plant2   	7	palmtree  	27	palmtree08  	277	alive    	1	still	0	natural 	1	n	0	0    	 	0.0	0	100.34307160007299	100.44299520004999	0.0999235999770462
77076	100	164	stimuli\nonmovArt\mug\nma_mug04.jpg              	1	3	1	nma_mug04.jpg        	nonmovArt	4	mug       	26	mug04       	263	not_alive	0	still	0	artefact	0	n	0	0    	 	0.0	0	100.493068400072	100.592970199999	0.0999017999274656
77226	100	165	stimuli\movArt\bus\ma_bus05.jpg                  	1	3	1	ma_bus05.jpg         	movArt   	2	bus       	3	bus05       	34	not_alive	0	moves	1	artefact	0	n	0	0    	 	0.0	0	100.643064400065	100.742978699971	0.0999142999062314
77376	100	166	stimuli\plant\cactus\plant_cactus09.jpg          	1	3	1	plant_cactus09.jpg   	plant    	6	cactus    	4	cactus09    	48	alive    	1	still	0	natural 	1	n	0	0    	 	0.0	0	100.793058300042	100.89296940004	0.0999110999982804
77526	100	167	stimuli\movArt\bus\ma_bus08.jpg                  	1	3	1	ma_bus08.jpg         	movArt   	2	bus       	3	bus08       	37	not_alive	0	moves	1	artefact	0	n	0	0    	 	0.0	0	100.943047999986	101.042961900006	0.099913900019601
77676	100	168	stimuli\nonmovNat\sand\nmn_sand05.jpg            	1	3	1	nmn_sand05.jpg       	nonmovNat	5	sand      	31	sand05      	314	not_alive	0	still	0	natural 	1	n	0	0    	 	0.0	0	101.09306220000099	101.192966600065	0.0999044000636786
77826	100	169	stimuli\plant2\clover\plant_clover06.jpg         	1	3	1	plant_clover06.jpg   	plant2   	7	clover    	9	clover06    	95	alive    	1	still	0	natural 	1	n	0	0    	 	0.0	0	101.243071199977	101.34296899999	0.0998978000134229
77976	100	170	stimuli\movArt\boat\ma_boat01.jpg                	1	3	1	ma_boat01.jpg        	movArt   	2	boat      	2	boat01      	20	not_alive	0	moves	1	artefact	0	n	0	0    	 	0.0	0	101.39305110008002	101.49299679999201	0.0999456999124959
78126	100	171	stimuli\animals2\bee\animal_bee01.jpg            	1	3	1	animal_bee01.jpg     	animals2 	1	bee       	0	bee01       	0	alive    	1	moves	1	natural 	1	n	0	0    	 	0.0	0	101.543201699969	101.64298520004401	0.0997835000744089
78276	100	172	stimuli\nonmovNat\shell\nmn_shell04.jpg          	1	3	1	nmn_shell04.jpg      	nonmovNat	5	shell     	32	shell04     	323	not_alive	0	still	0	natural 	1	n	0	0    	 	0.0	0	101.69313839997601	101.792980400031	0.0998420000541955
78426	100	173	stimuli\plant2\clover\plant_clover08.jpg         	1	3	1	plant_clover08.jpg   	plant2   	7	clover    	9	clover08    	97	alive    	1	still	0	natural 	1	n	0	0    	 	0.0	0	101.843051100033	101.94295930000999	0.0999081999761983
78576	100	174	stimuli\animals2\tiger\animal_tiger10.jpg        	1	3	1	animal_tiger10.jpg   	animals2 	1	tiger     	33	tiger10     	339	alive    	1	moves	1	natural 	1	n	0	0    	 	0.0	0	101.993045400013	102.09297430003099	0.09992890001740301
78726	100	175	stimuli\nonmovNat\rock\nmn_rock09.jpg            	1	3	1	nmn_rock09.jpg       	nonmovNat	5	rock      	30	rock09      	308	not_alive	0	still	0	natural 	1	n	0	0    	 	0.0	0	102.143037499976	102.242962600081	0.0999251001048833
78876	100	176	stimuli\movNat\waves\mn_waves04.jpg              	1	3	1	mn_waves04.jpg       	movNat   	3	waves     	38	waves04     	383	not_alive	0	moves	1	natural 	1	n	0	0    	 	0.0	0	102.29303489998001	102.39295989996799	0.0999249999877065
79026	100	177	stimuli\movNat\waterfall\mn_waterfall10.jpg      	1	3	1	mn_waterfall10.jpg   	movNat   	3	waterfall 	37	waterfall10 	379	not_alive	0	moves	1	natural 	1	n	0	0    	 	0.0	0	102.44306429999399	102.54298270004801	0.0999184000538662
79176	100	178	stimuli\plant2\fern\plant_fern03.jpg             	1	3	1	plant_fern03.jpg     	plant2   	7	fern      	14	fern03      	142	alive    	1	still	0	natural 	1	n	0	0    	 	0.0	0	102.592919300077	102.69296760007299	0.100048299995251
79326	100	179	stimuli\plant\grass\plant_grass08.jpg            	1	3	1	plant_grass08.jpg    	plant    	6	grass     	17	grass08     	177	alive    	1	still	0	natural 	1	n	1	0    	 	0.0	0	102.743047700031	102.84296629997	0.0999185999389737
79476	100	180	stimuli\nonmovArt\headphones\nma_headphones10.jpg	1	3	1	nma_headphones10.jpg 	nonmovArt	4	headphones	18	headphones10	189	not_alive	0	still	0	artefact	0	n	0	0    	 	0.0	0	102.893081500079	102.992957900045	0.0998763999668881
79626	100	181	stimuli\animals\cat\animal_cat02.jpg             	1	3	1	animal_cat02.jpg     	animals  	0	cat       	6	cat02       	61	alive    	1	moves	1	natural 	1	n	0	1    	f	0.292048100032844	1	103.04308790003401	103.142978299991	0.0998903999570757
79776	100	182	stimuli\nonmovNat\cliff\nmn_cliff09.jpg          	1	3	1	nmn_cliff09.jpg      	nonmovNat	5	cliff     	7	cliff09     	78	not_alive	0	still	0	natural 	1	n	0	0    	 	0.0	0	103.193086500047	103.292972899973	0.0998863999266177
79926	100	183	stimuli\movArt\boat\ma_boat02.jpg                	1	3	1	ma_boat02.jpg        	movArt   	2	boat      	2	boat02      	21	not_alive	0	moves	1	artefact	0	n	0	0    	 	0.0	0	103.34313709999	103.443051000009	0.099913900019601
80076	100	184	stimuli\animals2\tiger\animal_tiger03.jpg        	1	3	1	animal_tiger03.jpg   	animals2 	1	tiger     	33	tiger03     	332	alive    	1	moves	1	natural 	1	n	0	0    	 	0.0	0	103.49322050006599	103.592958600027	0.0997380999615416
80226	100	185	stimuli\plant\flower\plant_flower01.jpg          	1	3	1	plant_flower01.jpg   	plant    	6	flower    	16	flower01    	160	alive    	1	still	0	natural 	1	n	0	0    	 	0.0	0	103.643083199975	103.742973700049	0.0998905000742524
80376	100	186	stimuli\plant2\clover\plant_clover08.jpg         	1	3	1	plant_clover08.jpg   	plant2   	7	clover    	9	clover08    	97	alive    	1	still	0	natural 	1	n	0	0    	 	0.0	0	103.79303379997101	103.892948499997	0.0999147000256925
80526	100	187	stimuli\plant\vine\plant_vine04.jpg              	1	3	1	plant_vine04.jpg     	plant    	6	vine      	36	vine04      	363	alive    	1	still	0	natural 	1	n	0	0    	 	0.0	0	103.943066000007	104.042975699995	0.0999096999876201
80676	100	188	stimuli\movNat\river\mn_river07.jpg              	1	3	1	mn_river07.jpg       	movNat   	3	river     	29	river07     	296	not_alive	0	moves	1	natural 	1	n	1	0    	 	0.0	0	104.09307930001499	104.19301719998501	0.0999378999695181
80826	100	189	stimuli\plant\flower\plant_flower06.jpg          	1	3	1	plant_flower06.jpg   	plant    	6	flower    	16	flower06    	165	alive    	1	still	0	natural 	1	n	0	0    	 	0.0	0	104.24319519999001	104.34295089996901	0.0997556999791413
80976	100	190	stimuli\plant2\moss\plant_moss10.jpg             	1	3	1	plant_moss10.jpg     	plant2   	7	moss      	25	moss10      	259	alive    	1	still	0	natural 	1	n	0	1    	f	0.391957300016657	1	104.393062700052	104.492983000004	0.0999202999519184
81126	100	191	stimuli\nonmovArt\bench\nma_bench02.jpg          	1	3	1	nma_bench02.jpg      	nonmovArt	4	bench     	1	bench02     	11	not_alive	0	still	0	artefact	0	n	0	0    	 	0.0	0	104.543057600036	104.64297010004499	0.0999125000089407
81276	100	192	stimuli\movArt\bus\ma_bus08.jpg                  	1	3	1	ma_bus08.jpg         	movArt   	2	bus       	3	bus08       	37	not_alive	0	moves	1	artefact	0	n	1	0    	 	0.0	0	104.693068600027	104.79296150000299	0.0998928999761119
81426	100	193	stimuli\movArt\car\ma_car03.jpg                  	1	3	1	ma_car03.jpg         	movArt   	2	car       	5	car03       	52	not_alive	0	moves	1	artefact	0	n	0	0    	 	0.0	0	104.843062	104.94295880000601	0.0998968000058084
81576	100	194	stimuli\movNat\hotspring\mn_hotspring06.jpg      	1	3	1	mn_hotspring06.jpg   	movNat   	3	hotspring 	21	hotspring06 	215	not_alive	0	moves	1	natural 	1	n	0	0    	 	0.0	0	104.99305759999001	105.092935000081	0.0998774000909179
81726	100	195	stimuli\nonmovNat\crystal\nmn_crystal07.jpg      	1	3	1	nmn_crystal07.jpg    	nonmovNat	5	crystal   	10	crystal07   	106	not_alive	0	still	0	natural 	1	n	0	1    	f	0.454550900030881	1	105.143150100019	105.243116799975	0.0999666999559849
81876	100	196	stimuli\movNat\waterfall\mn_waterfall07.jpg      	1	3	1	mn_waterfall07.jpg   	movNat   	3	waterfall 	37	waterfall07 	376	not_alive	0	moves	1	natural 	1	n	0	0    	 	0.0	0	105.293135200045	105.39293880004	0.0998035999946296
82026	100	197	stimuli\movNat\waterfall\mn_waterfall02.jpg      	1	3	1	mn_waterfall02.jpg   	movNat   	3	waterfall 	37	waterfall02 	371	not_alive	0	moves	1	natural 	1	n	0	0    	 	0.0	0	105.443046999979	105.54294449999	0.0998975000111386
82176	100	198	stimuli\animals2\lemur\animal_lemur02.jpg        	1	3	1	animal_lemur02.jpg   	animals2 	1	lemur     	23	lemur02     	231	alive    	1	moves	1	natural 	1	n	0	0    	 	0.0	0	105.59305140003599	105.69295389996799	0.0999024999327957
82326	100	199	stimuli\plant2\lemontree\plant_lemontree04.jpg   	1	3	1	plant_lemontree04.jpg	plant2   	7	lemontree 	22	lemontree04 	223	alive    	1	still	0	natural 	1	n	0	0    	 	0.0	0	105.74305350007499	105.842938699992	0.0998851999174803
82476	100	200	stimuli\nonmovArt\clothespeg\nma_clothespeg09.jpg	1	3	1	nma_clothespeg09.jpg 	nonmovArt	4	clothespeg	8	clothespeg09	88	not_alive	0	still	0	artefact	0	n	0	0    	 	0.0	0	105.89302050008001	105.99294789996901	0.0999273998895659
82626	100	201	stimuli\animals\dolphin\animal_dolphin03.jpg     	1	3	1	animal_dolphin03.jpg 	animals  	0	dolphin   	12	dolphin03   	122	alive    	1	moves	1	natural 	1	n	0	0    	 	0.0	0	106.043039300013	106.142934700008	0.0998953999951481
82776	100	202	stimuli\animals\horse\animal_horse02.jpg         	1	3	1	animal_horse02.jpg   	animals  	0	horse     	20	horse02     	201	alive    	1	moves	1	natural 	1	n	0	0    	 	0.0	0	106.19305370003	106.292935000034	0.0998813000041991
82926	100	203	stimuli\movNat\river\mn_river09.jpg              	1	3	1	mn_river09.jpg       	movNat   	3	river     	29	river09     	298	not_alive	0	moves	1	natural 	1	n	0	0    	 	0.0	0	106.343050800031	106.442949700053	0.0998989000217989
83076	100	204	stimuli\movArt\train\ma_train03.jpg              	1	3	1	ma_train03.jpg       	movArt   	2	train     	34	train03     	342	not_alive	0	moves	1	artefact	0	n	0	0    	 	0.0	0	106.493063600035	106.592927400023	0.0998637999873608
83226	100	205	stimuli\nonmovArt\mug\nma_mug04.jpg              	1	3	1	nma_mug04.jpg        	nonmovArt	4	mug       	26	mug04       	263	not_alive	0	still	0	artefact	0	n	0	0    	 	0.0	0	106.643046100042	106.742949899985	0.0999037999426946
83376	100	206	stimuli\animals\dog\animal_dog05.jpg             	1	3	1	animal_dog05.jpg     	animals  	0	dog       	11	dog05       	114	alive    	1	moves	1	natural 	1	n	0	0    	 	0.0	0	106.79303220007601	106.893002700061	0.09997049998492001
83526	100	207	stimuli\animals\cat\animal_cat06.jpg             	1	3	1	animal_cat06.jpg     	animals  	0	cat       	6	cat06       	65	alive    	1	moves	1	natural 	1	n	0	0    	 	0.0	0	106.943234700011	107.043023400009	0.099788699997589
83676	100	208	stimuli\animals\eagle\animal_eagle03.jpg         	1	3	1	animal_eagle03.jpg   	animals  	0	eagle     	13	eagle03     	132	alive    	1	moves	1	natural 	1	n	0	0    	 	0.0	0	107.093060199986	107.192946500028	0.0998863000422716
83826	100	209	stimuli\animals\eagle\animal_eagle06.jpg         	1	3	1	animal_eagle06.jpg   	animals  	0	eagle     	13	eagle06     	135	alive    	1	moves	1	natural 	1	n	0	0    	 	0.0	0	107.243031100021	107.34290759998801	0.0998764999676495
83976	100	210	stimuli\animals\cat\animal_cat10.jpg             	1	3	1	animal_cat10.jpg     	animals  	0	cat       	6	cat10       	69	alive    	1	moves	1	natural 	1	n	0	0    	 	0.0	0	107.392958000069	107.49292920006	0.0999711999902501
84126	100	211	stimuli\movNat\waves\mn_waves04.jpg              	1	3	1	mn_waves04.jpg       	movNat   	3	waves     	38	waves04     	383	not_alive	0	moves	1	natural 	1	n	0	0    	 	0.0	0	107.543036599993	107.642919700011	0.0998831000179052
84276	100	212	stimuli\nonmovNat\rock\nmn_rock09.jpg            	1	3	1	nmn_rock09.jpg       	nonmovNat	5	rock      	30	rock09      	308	not_alive	0	still	0	natural 	1	n	0	0    	 	0.0	0	107.693009100039	107.792913499987	0.0999043999472633
84426	100	213	stimuli\animals\dolphin\animal_dolphin07.jpg     	1	3	1	animal_dolphin07.jpg 	animals  	0	dolphin   	12	dolphin07   	126	alive    	1	moves	1	natural 	1	n	0	0    	 	0.0	0	107.843035200029	107.94294270000002	0.0999074999708682
84576	100	214	stimuli\nonmovArt\bench\nma_bench02.jpg          	1	3	1	nma_bench02.jpg      	nonmovArt	4	bench     	1	bench02     	11	not_alive	0	still	0	artefact	0	n	0	0    	 	0.0	0	107.993034000043	108.092900300049	0.099866300006397
84726	100	215	stimuli\nonmovArt\headphones\nma_headphones04.jpg	1	3	1	nma_headphones04.jpg 	nonmovArt	4	headphones	18	headphones04	183	not_alive	0	still	0	artefact	0	n	0	0    	 	0.0	0	108.14303010003599	108.242913100054	0.0998830000171438
84876	100	216	stimuli\nonmovArt\lock\nma_lock10.jpg            	1	3	1	nma_lock10.jpg       	nonmovArt	4	lock      	24	lock10      	249	not_alive	0	still	0	artefact	0	n	0	0    	 	0.0	0	108.29301500006099	108.39298860007	0.0999736000085249
85026	100	217	stimuli\plant2\fern\plant_fern10.jpg             	1	3	1	plant_fern10.jpg     	plant2   	7	fern      	14	fern10      	149	alive    	1	still	0	natural 	1	n	0	0    	 	0.0	0	108.443034800002	108.542916100007	0.0998813000041991
85176	100	218	stimuli\movArt\car\ma_car09.jpg                  	1	3	1	ma_car09.jpg         	movArt   	2	car       	5	car09       	58	not_alive	0	moves	1	artefact	0	n	0	0    	 	0.0	0	108.593020700035	108.692895799992	0.0998750999569892
85326	100	219	stimuli\nonmovArt\lock\nma_lock06.jpg            	1	3	1	nma_lock06.jpg       	nonmovArt	4	lock      	24	lock06      	245	not_alive	0	still	0	artefact	0	n	0	0    	 	0.0	0	108.74299699999399	108.842897000024	0.0999000000301748
85476	100	220	stimuli\nonmovNat\shell\nmn_shell06.jpg          	1	3	1	nmn_shell06.jpg      	nonmovNat	5	shell     	32	shell06     	325	not_alive	0	still	0	natural 	1	n	0	0    	 	0.0	0	108.892986500054	108.992931000073	0.0999445000197738
85626	100	221	stimuli\nonmovArt\lock\nma_lock01.jpg            	1	3	1	nma_lock01.jpg       	nonmovArt	4	lock      	24	lock01      	240	not_alive	0	still	0	artefact	0	n	0	0    	 	0.0	0	109.043050999986	109.142947999993	0.0998970000073313
85776	100	222	stimuli\movNat\hotspring\mn_hotspring04.jpg      	1	3	1	mn_hotspring04.jpg   	movNat   	3	hotspring 	21	hotspring04 	213	not_alive	0	moves	1	natural 	1	n	0	0    	 	0.0	0	109.193036600016	109.29290770005899	0.0998711000429466
85926	100	223	stimuli\movArt\train\ma_train09.jpg              	1	3	1	ma_train09.jpg       	movArt   	2	train     	34	train09     	348	not_alive	0	moves	1	artefact	0	n	0	0    	 	0.0	0	109.342978500063	109.442897100002	0.0999185999389737
86076	100	224	stimuli\plant2\moss\plant_moss09.jpg             	1	3	1	plant_moss09.jpg     	plant2   	7	moss      	25	moss09      	258	alive    	1	still	0	natural 	1	n	0	0    	 	0.0	0	109.49301730003201	109.59291440004	0.0998971000080928
86226	100	225	stimuli\nonmovArt\clothespeg\nma_clothespeg05.jpg	1	3	1	nma_clothespeg05.jpg 	nonmovArt	4	clothespeg	8	clothespeg05	84	not_alive	0	still	0	artefact	0	n	0	0    	 	0.0	0	109.643001700053	109.742893700022	0.0998919999692589
86376	100	226	stimuli\animals\dolphin\animal_dolphin05.jpg     	1	3	1	animal_dolphin05.jpg 	animals  	0	dolphin   	12	dolphin05   	124	alive    	1	moves	1	natural 	1	n	0	0    	 	0.0	0	109.792996600037	109.892903	0.0999063999624922
86526	100	227	stimuli\animals2\pigeon\animal_pigeon02.jpg      	1	3	1	animal_pigeon02.jpg  	animals2 	1	pigeon    	28	pigeon02    	281	alive    	1	moves	1	natural 	1	n	0	0    	 	0.0	0	109.94300870003599	110.042900700006	0.0998919999692589
86676	100	228	stimuli\plant\tree\plant_tree10.jpg              	1	3	1	plant_tree10.jpg     	plant    	6	tree      	35	tree10      	359	alive    	1	still	0	natural 	1	n	0	0    	 	0.0	0	110.09298610000401	110.192901800037	0.09991570003330698
86826	100	229	stimuli\animals2\whale\animal_whale03.jpg        	1	3	1	animal_whale03.jpg   	animals2 	1	whale     	39	whale03     	392	alive    	1	moves	1	natural 	1	n	0	0    	 	0.0	0	110.24297540006201	110.34296550008001	0.0999901000177487
86976	100	230	stimuli\movArt\helicopter\ma_helicopter06.jpg    	1	3	1	ma_helicopter06.jpg  	movArt   	2	helicopter	19	helicopter06	195	not_alive	0	moves	1	artefact	0	n	0	0    	 	0.0	0	110.39304380002399	110.49315200001001	0.10010819998569802
87126	100	231	stimuli\plant\cactus\plant_cactus01.jpg          	1	3	1	plant_cactus01.jpg   	plant    	6	cactus    	4	cactus01    	40	alive    	1	still	0	natural 	1	n	0	0    	 	0.0	0	110.543096599984	110.64289310004101	0.099796500056982
87276	100	232	stimuli\movNat\hotspring\mn_hotspring02.jpg      	1	3	1	mn_hotspring02.jpg   	movNat   	3	hotspring 	21	hotspring02 	211	not_alive	0	moves	1	natural 	1	n	0	0    	 	0.0	0	110.692976600025	110.792895300081	0.0999187000561505
87426	100	233	stimuli\nonmovNat\sand\nmn_sand10.jpg            	1	3	1	nmn_sand10.jpg       	nonmovNat	5	sand      	31	sand10      	319	not_alive	0	still	0	natural 	1	n	0	0    	 	0.0	0	110.84299759997499	110.94289070006901	0.0998931000940501
87576	100	234	stimuli\plant\flower\plant_flower10.jpg          	1	3	1	plant_flower10.jpg   	plant    	6	flower    	16	flower10    	169	alive    	1	still	0	natural 	1	n	0	0    	 	0.0	0	110.99297250004	111.092889699969	0.0999171999283135
87726	100	235	stimuli\animals\horse\animal_horse08.jpg         	1	3	1	animal_horse08.jpg   	animals  	0	horse     	20	horse08     	207	alive    	1	moves	1	natural 	1	n	0	0    	 	0.0	0	111.1429795	111.242871399969	0.0998918999684974
87876	100	236	stimuli\plant\grass\plant_grass08.jpg            	1	3	1	plant_grass08.jpg    	plant    	6	grass     	17	grass08     	177	alive    	1	still	0	natural 	1	n	0	0    	 	0.0	0	111.292976700002	111.392889900017	0.0999132000142708
88026	100	237	stimuli\animals2\lemur\animal_lemur09.jpg        	1	3	1	animal_lemur09.jpg   	animals2 	1	lemur     	23	lemur09     	238	alive    	1	moves	1	natural 	1	n	0	0    	 	0.0	0	111.44298429996701	111.54289240005899	0.0999081000918522
88176	100	238	stimuli\movArt\helicopter\ma_helicopter05.jpg    	1	3	1	ma_helicopter05.jpg  	movArt   	2	helicopter	19	helicopter05	194	not_alive	0	moves	1	artefact	0	n	0	0    	 	0.0	0	111.59297110000601	111.69288330001301	0.0999122000066563
88326	100	239	stimuli\animals2\whale\animal_whale10.jpg        	1	3	1	animal_whale10.jpg   	animals2 	1	whale     	39	whale10     	399	alive    	1	moves	1	natural 	1	n	0	0    	 	0.0	0	111.74297640007	111.84289740002701	0.0999209999572485
91876	100	240	stimuli\nonmovNat\crystal\nmn_crystal09.jpg      	1	4	1	nmn_crystal09.jpg    	nonmovNat	5	crystal   	10	crystal09   	108	not_alive	0	still	0	natural 	1	n	0	0    	 	0.0	0	115.292948200018	115.39281690004299	0.0998687000246718
92026	100	241	stimuli\plant2\moss\plant_moss01.jpg             	1	4	1	plant_moss01.jpg     	plant2   	7	moss      	25	moss01      	250	alive    	1	still	0	natural 	1	n	0	0    	 	0.0	0	115.442950900062	115.542835999979	0.0998850999167189
92176	100	242	stimuli\nonmovArt\clothespeg\nma_clothespeg06.jpg	1	4	1	nma_clothespeg06.jpg 	nonmovArt	4	clothespeg	8	clothespeg06	85	not_alive	0	still	0	artefact	0	n	0	0    	 	0.0	0	115.59291540004801	115.692830100073	0.0999147000256925
92326	100	243	stimuli\movArt\train\ma_train08.jpg              	1	4	1	ma_train08.jpg       	movArt   	2	train     	34	train08     	347	not_alive	0	moves	1	artefact	0	n	0	0    	 	0.0	0	115.742918099975	115.84282999998001	0.099911900004372
92476	100	244	stimuli\plant2\clover\plant_clover06.jpg         	1	4	1	plant_clover06.jpg   	plant2   	7	clover    	9	clover06    	95	alive    	1	still	0	natural 	1	n	0	0    	 	0.0	0	115.892924700049	115.992854200071	0.0999295000219717
92626	100	245	stimuli\movNat\waterfall\mn_waterfall08.jpg      	1	4	1	mn_waterfall08.jpg   	movNat   	3	waterfall 	37	waterfall08 	377	not_alive	0	moves	1	natural 	1	n	0	0    	 	0.0	0	116.042919400032	116.14285000006201	0.0999306000303477
92776	100	246	stimuli\plant\flower\plant_flower05.jpg          	1	4	1	plant_flower05.jpg   	plant    	6	flower    	16	flower05    	164	alive    	1	still	0	natural 	1	n	0	0    	 	0.0	0	116.19293430005199	116.292934400029	0.10000009997747801
92926	100	247	stimuli\plant\tree\plant_tree07.jpg              	1	4	1	plant_tree07.jpg     	plant    	6	tree      	35	tree07      	356	alive    	1	still	0	natural 	1	n	0	0    	 	0.0	0	116.343050500029	116.442892300081	0.0998418000526726
93076	100	248	stimuli\nonmovArt\headphones\nma_headphones03.jpg	1	4	1	nma_headphones03.jpg 	nonmovArt	4	headphones	18	headphones03	182	not_alive	0	still	0	artefact	0	n	0	0    	 	0.0	0	116.49299930001101	116.59282260004	0.0998233000282198
93226	100	249	stimuli\movNat\waterfall\mn_waterfall02.jpg      	1	4	1	mn_waterfall02.jpg   	movNat   	3	waterfall 	37	waterfall02 	371	not_alive	0	moves	1	natural 	1	n	0	0    	 	0.0	0	116.642919700011	116.74283470003901	0.0999150000279769
93376	100	250	stimuli\plant\cactus\plant_cactus02.jpg          	1	4	1	plant_cactus02.jpg   	plant    	6	cactus    	4	cactus02    	41	alive    	1	still	0	natural 	1	n	0	0    	 	0.0	0	116.7929152	116.892828400014	0.0999132000142708
93526	100	251	stimuli\animals\dog\animal_dog06.jpg             	1	4	1	animal_dog06.jpg     	animals  	0	dog       	11	dog06       	115	alive    	1	moves	1	natural 	1	n	0	0    	 	0.0	0	116.942914700019	117.042822599993	0.09990789997391401
93676	100	252	stimuli\animals\horse\animal_horse06.jpg         	1	4	1	animal_horse06.jpg   	animals  	0	horse     	20	horse06     	205	alive    	1	moves	1	natural 	1	n	0	0    	 	0.0	0	117.092915000045	117.19282640004499	0.0999114000005647
93826	100	253	stimuli\nonmovArt\mug\nma_mug07.jpg              	1	4	1	nma_mug07.jpg        	nonmovArt	4	mug       	26	mug07       	266	not_alive	0	still	0	artefact	0	n	0	0    	 	0.0	0	117.242898100056	117.342819000012	0.0999208999564871
93976	100	254	stimuli\nonmovArt\lock\nma_lock03.jpg            	1	4	1	nma_lock03.jpg       	nonmovArt	4	lock      	24	lock03      	242	not_alive	0	still	0	artefact	0	n	0	0    	 	0.0	0	117.39291509997601	117.49280380003599	0.0998887000605464
94126	100	255	stimuli\nonmovNat\crystal\nmn_crystal01.jpg      	1	4	1	nmn_crystal01.jpg    	nonmovNat	5	crystal   	10	crystal01   	100	not_alive	0	still	0	natural 	1	n	0	0    	 	0.0	0	117.542909800075	117.642828600015	0.0999187999404966
94276	100	256	stimuli\movArt\boat\ma_boat10.jpg                	1	4	1	ma_boat10.jpg        	movArt   	2	boat      	2	boat10      	29	not_alive	0	moves	1	artefact	0	n	0	0    	 	0.0	0	117.692905200063	117.79282279999501	0.0999175999313592
94426	100	257	stimuli\animals2\lemur\animal_lemur07.jpg        	1	4	1	animal_lemur07.jpg   	animals2 	1	lemur     	23	lemur07     	236	alive    	1	moves	1	natural 	1	n	0	0    	 	0.0	0	117.842922599986	117.94281779998	0.0998951999936252
94576	100	258	stimuli\plant\grass\plant_grass07.jpg            	1	4	1	plant_grass07.jpg    	plant    	6	grass     	17	grass07     	176	alive    	1	still	0	natural 	1	n	0	0    	 	0.0	0	117.992891300004	118.092940900009	0.10004960000515
94726	100	259	stimuli\plant\tree\plant_tree03.jpg              	1	4	1	plant_tree03.jpg     	plant    	6	tree      	35	tree03      	352	alive    	1	still	0	natural 	1	n	0	0    	 	0.0	0	118.143010700005	118.242850000039	0.0998393000336364
94876	100	260	stimuli\nonmovNat\crystal\nmn_crystal04.jpg      	1	4	1	nmn_crystal04.jpg    	nonmovNat	5	crystal   	10	crystal04   	103	not_alive	0	still	0	natural 	1	n	0	0    	 	0.0	0	118.292886600015	118.392811600002	0.0999249999877065
95026	100	261	stimuli\movArt\train\ma_train02.jpg              	1	4	1	ma_train02.jpg       	movArt   	2	train     	34	train02     	341	not_alive	0	moves	1	artefact	0	n	0	0    	 	0.0	0	118.442914000014	118.542803899967	0.0998898999532684
95176	100	262	stimuli\nonmovNat\rock\nmn_rock01.jpg            	1	4	1	nmn_rock01.jpg       	nonmovNat	5	rock      	30	rock01      	300	not_alive	0	still	0	natural 	1	n	1	0    	 	0.0	0	118.592892599991	118.692800799967	0.0999081999761983
95326	100	263	stimuli\movArt\boat\ma_boat10.jpg                	1	4	1	ma_boat10.jpg        	movArt   	2	boat      	2	boat10      	29	not_alive	0	moves	1	artefact	0	n	1	0    	 	0.0	0	118.742902699974	118.842810700065	0.0999080000910908
95476	100	264	stimuli\movNat\hotspring\mn_hotspring03.jpg      	1	4	1	mn_hotspring03.jpg   	movNat   	3	hotspring 	21	hotspring03 	212	not_alive	0	moves	1	natural 	1	n	0	1    	f	0.142035400029272	1	118.89288820000401	118.992810099968	0.0999218999641016
95626	100	265	stimuli\nonmovArt\headphones\nma_headphones06.jpg	1	4	1	nma_headphones06.jpg 	nonmovArt	4	headphones	18	headphones06	185	not_alive	0	still	0	artefact	0	n	0	0    	 	0.0	0	119.04290470003599	119.142812200007	0.0999074999708682
95776	100	266	stimuli\movArt\helicopter\ma_helicopter06.jpg    	1	4	1	ma_helicopter06.jpg  	movArt   	2	helicopter	19	helicopter06	195	not_alive	0	moves	1	artefact	0	n	0	0    	 	0.0	0	119.192888300051	119.29280370008199	0.0999154000310227
95926	100	267	stimuli\nonmovNat\sand\nmn_sand06.jpg            	1	4	1	nmn_sand06.jpg       	nonmovNat	5	sand      	31	sand06      	315	not_alive	0	still	0	natural 	1	n	0	0    	 	0.0	0	119.34289309999399	119.44279590004601	0.0999028000514954
96076	100	268	stimuli\movNat\fire\mn_fire05.jpg                	1	4	1	mn_fire05.jpg        	movNat   	3	fire      	15	fire05      	154	not_alive	0	moves	1	natural 	1	n	0	0    	 	0.0	0	119.492892900016	119.59280520002399	0.0999123000074178
96226	100	269	stimuli\movArt\car\ma_car07.jpg                  	1	4	1	ma_car07.jpg         	movArt   	2	car       	5	car07       	56	not_alive	0	moves	1	artefact	0	n	0	0    	 	0.0	0	119.642887399998	119.742789900047	0.09990250004921099
96376	100	270	stimuli\animals2\pigeon\animal_pigeon01.jpg      	1	4	1	animal_pigeon01.jpg  	animals2 	1	pigeon    	28	pigeon01    	280	alive    	1	moves	1	natural 	1	n	0	0    	 	0.0	0	119.7929305	119.892921900027	0.0999914000276476
96526	100	271	stimuli\plant2\clover\plant_clover02.jpg         	1	4	1	plant_clover02.jpg   	plant2   	7	clover    	9	clover02    	91	alive    	1	still	0	natural 	1	n	0	0    	 	0.0	0	119.942977900035	120.04289320006501	0.0999153000302612
96676	100	272	stimuli\movNat\waves\mn_waves09.jpg              	1	4	1	mn_waves09.jpg       	movNat   	3	waves     	38	waves09     	388	not_alive	0	moves	1	natural 	1	n	0	0    	 	0.0	0	120.092884600046	120.192792300018	0.0999076999723911
96826	100	273	stimuli\movNat\fire\mn_fire07.jpg                	1	4	1	mn_fire07.jpg        	movNat   	3	fire      	15	fire07      	156	not_alive	0	moves	1	natural 	1	n	0	0    	 	0.0	0	120.24287549999998	120.342794500059	0.0999190000584349
96976	100	274	stimuli\animals\eagle\animal_eagle03.jpg         	1	4	1	animal_eagle03.jpg   	animals  	0	eagle     	13	eagle03     	132	alive    	1	moves	1	natural 	1	n	1	0    	 	0.0	0	120.39288310008101	120.49277959996799	0.0998964998871088
97126	100	275	stimuli\plant2\clover\plant_clover01.jpg         	1	4	1	plant_clover01.jpg   	plant2   	7	clover    	9	clover01    	90	alive    	1	still	0	natural 	1	n	0	0    	 	0.0	0	120.54286539997	120.642790400074	0.0999250001041218
97276	100	276	stimuli\animals\dog\animal_dog02.jpg             	1	4	1	animal_dog02.jpg     	animals  	0	dog       	11	dog02       	111	alive    	1	moves	1	natural 	1	n	0	1    	f	0.292030699900351	1	120.69288910005699	120.792794500012	0.0999053999548778
97426	100	277	stimuli\plant2\palmtree\plant_palmtree01.jpg     	1	4	1	plant_palmtree01.jpg 	plant2   	7	palmtree  	27	palmtree01  	270	alive    	1	still	0	natural 	1	n	0	0    	 	0.0	0	120.842880900018	120.942786199972	0.0999052999541163
97576	100	278	stimuli\animals2\whale\animal_whale01.jpg        	1	4	1	animal_whale01.jpg   	animals2 	1	whale     	39	whale01     	390	alive    	1	moves	1	natural 	1	n	0	0    	 	0.0	0	120.99288070004	121.092776600039	0.0998958999989554
97726	100	279	stimuli\movArt\car\ma_car07.jpg                  	1	4	1	ma_car07.jpg         	movArt   	2	car       	5	car07       	56	not_alive	0	moves	1	artefact	0	n	0	0    	 	0.0	0	121.14288300008002	121.242813799996	0.0999307999154552
97876	100	280	stimuli\nonmovNat\shell\nmn_shell08.jpg          	1	4	1	nmn_shell08.jpg      	nonmovNat	5	shell     	32	shell08     	327	not_alive	0	still	0	natural 	1	n	0	0    	 	0.0	0	121.292879500077	121.39276810001999	0.0998885999433696
98026	100	281	stimuli\nonmovArt\lock\nma_lock08.jpg            	1	4	1	nma_lock08.jpg       	nonmovArt	4	lock      	24	lock08      	247	not_alive	0	still	0	artefact	0	n	0	0    	 	0.0	0	121.44284799997699	121.542778300005	0.0999303000280633
98176	100	282	stimuli\plant\tree\plant_tree08.jpg              	1	4	1	plant_tree08.jpg     	plant    	6	tree      	35	tree08      	357	alive    	1	still	0	natural 	1	n	0	0    	 	0.0	0	121.59295439999501	121.69286950002399	0.0999151000287383
98326	100	283	stimuli\nonmovNat\rock\nmn_rock10.jpg            	1	4	1	nmn_rock10.jpg       	nonmovNat	5	rock      	30	rock10      	309	not_alive	0	still	0	natural 	1	n	0	0    	 	0.0	0	121.74297610006799	121.842783899978	0.0998077999101951
98476	100	284	stimuli\plant\vine\plant_vine10.jpg              	1	4	1	plant_vine10.jpg     	plant    	6	vine      	36	vine10      	369	alive    	1	still	0	natural 	1	n	0	0    	 	0.0	0	121.89287810004299	121.992773900041	0.0998957999981939
98626	100	285	stimuli\animals2\tiger\animal_tiger02.jpg        	1	4	1	animal_tiger02.jpg   	animals2 	1	tiger     	33	tiger02     	331	alive    	1	moves	1	natural 	1	n	0	0    	 	0.0	0	122.04286280006599	122.142790700076	0.0999279000097885
98776	100	286	stimuli\plant2\fern\plant_fern04.jpg             	1	4	1	plant_fern04.jpg     	plant2   	7	fern      	14	fern04      	143	alive    	1	still	0	natural 	1	n	0	0    	 	0.0	0	122.19281979999501	122.29278090002501	0.0999611000297591
98926	100	287	stimuli\nonmovNat\shell\nmn_shell07.jpg          	1	4	1	nmn_shell07.jpg      	nonmovNat	5	shell     	32	shell07     	326	not_alive	0	still	0	natural 	1	n	0	0    	 	0.0	0	122.34285999997499	122.44279090000799	0.099930900032632
99076	100	288	stimuli\plant\grass\plant_grass01.jpg            	1	4	1	plant_grass01.jpg    	plant    	6	grass     	17	grass01     	170	alive    	1	still	0	natural 	1	n	0	0    	 	0.0	0	122.49286150001001	122.59266560000799	0.0998040999984368
99226	100	289	stimuli\nonmovArt\clothespeg\nma_clothespeg10.jpg	1	4	1	nma_clothespeg10.jpg 	nonmovArt	4	clothespeg	8	clothespeg10	89	not_alive	0	still	0	artefact	0	n	0	0    	 	0.0	0	122.64287370001001	122.742786800023	0.0999131000135094
99376	100	290	stimuli\animals\cat\animal_cat07.jpg             	1	4	1	animal_cat07.jpg     	animals  	0	cat       	6	cat07       	66	alive    	1	moves	1	natural 	1	n	0	0    	 	0.0	0	122.792871300015	122.892793499981	0.0999221999663859
99526	100	291	stimuli\plant\flower\plant_flower05.jpg          	1	4	1	plant_flower05.jpg   	plant    	6	flower    	16	flower05    	164	alive    	1	still	0	natural 	1	n	0	0    	 	0.0	0	122.942901500035	123.042775299982	0.0998737999470904
99676	100	292	stimuli\nonmovArt\headphones\nma_headphones01.jpg	1	4	1	nma_headphones01.jpg 	nonmovArt	4	headphones	18	headphones01	180	not_alive	0	still	0	artefact	0	n	0	0    	 	0.0	0	123.092886600061	123.192806400009	0.0999197999481111
99826	100	293	stimuli\animals\horse\animal_horse01.jpg         	1	4	1	animal_horse01.jpg   	animals  	0	horse     	20	horse01     	200	alive    	1	moves	1	natural 	1	n	0	0    	 	0.0	0	123.24288450006901	123.342804200016	0.0999196999473497
99976	100	294	stimuli\nonmovNat\cliff\nmn_cliff02.jpg          	1	4	1	nmn_cliff02.jpg      	nonmovNat	5	cliff     	7	cliff02     	71	not_alive	0	still	0	natural 	1	n	0	1    	f	0.0	0	123.39296029997101	123.492926300038	0.0999660000670701
100126	100	295	stimuli\plant2\lemontree\plant_lemontree07.jpg   	1	4	1	plant_lemontree07.jpg	plant2   	7	lemontree 	22	lemontree07 	226	alive    	1	still	0	natural 	1	n	0	0    	 	0.0	0	123.543008200009	123.642785000033	0.0997768000233918
100276	100	296	stimuli\movNat\hotspring\mn_hotspring02.jpg      	1	4	1	mn_hotspring02.jpg   	movNat   	3	hotspring 	21	hotspring02 	211	not_alive	0	moves	1	natural 	1	n	0	0    	 	0.0	0	123.692850199994	123.79278140002899	0.0999312000349164
100426	100	297	stimuli\nonmovNat\shell\nmn_shell09.jpg          	1	4	1	nmn_shell09.jpg      	nonmovNat	5	shell     	32	shell09     	328	not_alive	0	still	0	natural 	1	n	0	0    	 	0.0	0	123.84287749999201	123.94276680005699	0.0998893000651151
100576	100	298	stimuli\animals\cat\animal_cat05.jpg             	1	4	1	animal_cat05.jpg     	animals  	0	cat       	6	cat05       	64	alive    	1	moves	1	natural 	1	n	0	0    	 	0.0	0	123.992881100043	124.092797600082	0.0999165000393986
100726	100	299	stimuli\animals2\bee\animal_bee01.jpg            	1	4	1	animal_bee01.jpg     	animals2 	1	bee       	0	bee01       	0	alive    	1	moves	1	natural 	1	n	0	0    	 	0.0	0	124.14287900004999	124.24279430008	0.0999153000302612
100876	100	300	stimuli\animals\dolphin\animal_dolphin04.jpg     	1	4	1	animal_dolphin04.jpg 	animals  	0	dolphin   	12	dolphin04   	123	alive    	1	moves	1	natural 	1	n	0	0    	 	0.0	0	124.292848400073	124.392787100049	0.0999386999756097
101026	100	301	stimuli\animals2\pigeon\animal_pigeon05.jpg      	1	4	1	animal_pigeon05.jpg  	animals2 	1	pigeon    	28	pigeon05    	284	alive    	1	moves	1	natural 	1	n	0	0    	 	0.0	0	124.442859100061	124.54275550006399	0.0998964000027626
101176	100	302	stimuli\movArt\bus\ma_bus01.jpg                  	1	4	1	ma_bus01.jpg         	movArt   	2	bus       	3	bus01       	30	not_alive	0	moves	1	artefact	0	n	0	0    	 	0.0	0	124.592853900045	124.692777400021	0.0999234999762848
101326	100	303	stimuli\movArt\boat\ma_boat02.jpg                	1	4	1	ma_boat02.jpg        	movArt   	2	boat      	2	boat02      	21	not_alive	0	moves	1	artefact	0	n	0	0    	 	0.0	0	124.742851000046	124.842790000024	0.0999389999778941
101476	100	304	stimuli\movNat\river\mn_river09.jpg              	1	4	1	mn_river09.jpg       	movNat   	3	river     	29	river09     	298	not_alive	0	moves	1	natural 	1	n	0	0    	 	0.0	0	124.89284220000299	124.99277340003799	0.0999312000349164
101626	100	305	stimuli\movArt\car\ma_car04.jpg                  	1	4	1	ma_car04.jpg         	movArt   	2	car       	5	car04       	53	not_alive	0	moves	1	artefact	0	n	0	0    	 	0.0	0	125.042855700012	125.14281129999999	0.0999555999878794
101776	100	306	stimuli\nonmovArt\lock\nma_lock01.jpg            	1	4	1	nma_lock01.jpg       	nonmovArt	4	lock      	24	lock01      	240	not_alive	0	still	0	artefact	0	n	0	0    	 	0.0	0	125.19289160007601	125.292910300079	0.10001870000269301
101926	100	307	stimuli\plant2\fern\plant_fern09.jpg             	1	4	1	plant_fern09.jpg     	plant2   	7	fern      	14	fern09      	148	alive    	1	still	0	natural 	1	n	0	0    	 	0.0	0	125.342963500065	125.442763600033	0.0998000999679789
102076	100	308	stimuli\nonmovNat\cliff\nmn_cliff10.jpg          	1	4	1	nmn_cliff10.jpg      	nonmovNat	5	cliff     	7	cliff10     	79	not_alive	0	still	0	natural 	1	n	1	0    	 	0.0	0	125.492831400014	125.592789800023	0.0999584000091999
102226	100	309	stimuli\nonmovArt\bench\nma_bench06.jpg          	1	4	1	nma_bench06.jpg      	nonmovArt	4	bench     	1	bench06     	15	not_alive	0	still	0	artefact	0	n	0	0    	 	0.0	0	125.64283680007799	125.742750099977	0.0999132998986169
102376	100	310	stimuli\animals2\pigeon\animal_pigeon01.jpg      	1	4	1	animal_pigeon01.jpg  	animals2 	1	pigeon    	28	pigeon01    	280	alive    	1	moves	1	natural 	1	n	0	1    	f	0.292041999986395	1	125.79286519996799	125.892756300047	0.0998911000788211
102526	100	311	stimuli\animals2\lemur\animal_lemur08.jpg        	1	4	1	animal_lemur08.jpg   	animals2 	1	lemur     	23	lemur08     	237	alive    	1	moves	1	natural 	1	n	0	0    	 	0.0	0	125.94283439998999	126.04277599998801	0.0999415999976918
102676	100	312	stimuli\animals\horse\animal_horse08.jpg         	1	4	1	animal_horse08.jpg   	animals  	0	horse     	20	horse08     	207	alive    	1	moves	1	natural 	1	n	0	0    	 	0.0	0	126.092849500012	126.192724499968	0.0998749999562278
102826	100	313	stimuli\movNat\waves\mn_waves01.jpg              	1	4	1	mn_waves01.jpg       	movNat   	3	waves     	38	waves01     	380	not_alive	0	moves	1	natural 	1	n	0	0    	 	0.0	0	126.242859999998	126.342769899988	0.09990989998914301
102976	100	314	stimuli\animals2\bee\animal_bee04.jpg            	1	4	1	animal_bee04.jpg     	animals2 	1	bee       	0	bee04       	3	alive    	1	moves	1	natural 	1	n	0	0    	 	0.0	0	126.392876100028	126.49274690006901	0.0998708000406622
103126	100	315	stimuli\nonmovNat\sand\nmn_sand09.jpg            	1	4	1	nmn_sand09.jpg       	nonmovNat	5	sand      	31	sand09      	318	not_alive	0	still	0	natural 	1	n	0	0    	 	0.0	0	126.542819699971	126.642766800011	0.0999471000395715
103276	100	316	stimuli\movArt\bus\ma_bus03.jpg                  	1	4	1	ma_bus03.jpg         	movArt   	2	bus       	3	bus03       	32	not_alive	0	moves	1	artefact	0	n	0	0    	 	0.0	0	126.69285029999399	126.79274970001998	0.0998994000256061
103426	100	317	stimuli\animals\dolphin\animal_dolphin01.jpg     	1	4	1	animal_dolphin01.jpg 	animals  	0	dolphin   	12	dolphin01   	120	alive    	1	moves	1	natural 	1	n	0	0    	 	0.0	0	126.842856900068	126.94283780001601	0.0999808999476954
103576	100	318	stimuli\nonmovArt\mug\nma_mug01.jpg              	1	4	1	nma_mug01.jpg        	nonmovArt	4	mug       	26	mug01       	260	not_alive	0	still	0	artefact	0	n	0	0    	 	0.0	0	126.99288470007	127.092822200037	0.0999374999664724
103726	100	319	stimuli\animals2\whale\animal_whale05.jpg        	1	4	1	animal_whale05.jpg   	animals2 	1	whale     	39	whale05     	394	alive    	1	moves	1	natural 	1	n	0	0    	 	0.0	0	127.142910300056	127.242754300009	0.0998439999530092
107526	100	320	stimuli\animals2\bee\animal_bee03.jpg            	1	5	1	animal_bee03.jpg     	animals2 	1	bee       	0	bee03       	2	alive    	1	moves	1	natural 	1	n	0	0    	 	0.0	0	130.942805800005	131.04271389998001	0.0999080999754369
107676	100	321	stimuli\plant2\moss\plant_moss04.jpg             	1	5	1	plant_moss04.jpg     	plant2   	7	moss      	25	moss04      	253	alive    	1	still	0	natural 	1	n	0	0    	 	0.0	0	131.092786900001	131.191923800041	0.099136900040321
107825	100	322	stimuli\movArt\helicopter\ma_helicopter05.jpg    	1	5	1	ma_helicopter05.jpg  	movArt   	2	helicopter	19	helicopter05	194	not_alive	0	moves	1	artefact	0	n	0	0    	 	0.0	0	131.241933900048	131.34193600004102	0.10000209999270698
107975	100	323	stimuli\animals2\lemur\animal_lemur09.jpg        	1	5	1	animal_lemur09.jpg   	animals2 	1	lemur     	23	lemur09     	238	alive    	1	moves	1	natural 	1	n	0	0    	 	0.0	0	131.391948500066	131.491923399968	0.0999748999020084
108125	100	324	stimuli\animals\dog\animal_dog09.jpg             	1	5	1	animal_dog09.jpg     	animals  	0	dog       	11	dog09       	118	alive    	1	moves	1	natural 	1	n	0	0    	 	0.0	0	131.541930800071	131.641921399976	0.0999905999051407
108275	100	325	stimuli\plant2\lemontree\plant_lemontree09.jpg   	1	5	1	plant_lemontree09.jpg	plant2   	7	lemontree 	22	lemontree09 	228	alive    	1	still	0	natural 	1	n	0	0    	 	0.0	0	131.691929699969	131.79191879998	0.0999891000101342
108425	100	326	stimuli\movNat\waves\mn_waves02.jpg              	1	5	1	mn_waves02.jpg       	movNat   	3	waves     	38	waves02     	381	not_alive	0	moves	1	natural 	1	n	0	0    	 	0.0	0	131.841929899994	131.941915699979	0.0999857999850064
108575	100	327	stimuli\nonmovArt\clothespeg\nma_clothespeg09.jpg	1	5	1	nma_clothespeg09.jpg 	nonmovArt	4	clothespeg	8	clothespeg09	88	not_alive	0	still	0	artefact	0	n	0	0    	 	0.0	0	131.991926599992	132.091916000005	0.0999894000124186
108725	100	328	stimuli\animals\cat\animal_cat05.jpg             	1	5	1	animal_cat05.jpg     	animals  	0	cat       	6	cat05       	64	alive    	1	moves	1	natural 	1	n	0	0    	 	0.0	0	132.141927300021	132.241914200014	0.0999868999933824
108875	100	329	stimuli\movNat\river\mn_river09.jpg              	1	5	1	mn_river09.jpg       	movNat   	3	river     	29	river09     	298	not_alive	0	moves	1	natural 	1	n	0	0    	 	0.0	0	132.291923800018	132.39191190001998	0.0999881000025198
109025	100	330	stimuli\movArt\helicopter\ma_helicopter04.jpg    	1	5	1	ma_helicopter04.jpg  	movArt   	2	helicopter	19	helicopter04	193	not_alive	0	moves	1	artefact	0	n	0	0    	 	0.0	0	132.441922100028	132.541941300035	0.1000192000065
109175	100	331	stimuli\animals2\whale\animal_whale03.jpg        	1	5	1	animal_whale03.jpg   	animals2 	1	whale     	39	whale03     	392	alive    	1	moves	1	natural 	1	n	0	0    	 	0.0	0	132.59192190004998	132.691911900067	0.0999900000169873
109325	100	332	stimuli\movNat\river\mn_river01.jpg              	1	5	1	mn_river01.jpg       	movNat   	3	river     	29	river01     	290	not_alive	0	moves	1	natural 	1	n	0	0    	 	0.0	0	132.741920300061	132.841910100076	0.0999898000154644
109475	100	333	stimuli\plant2\fern\plant_fern02.jpg             	1	5	1	plant_fern02.jpg     	plant2   	7	fern      	14	fern02      	141	alive    	1	still	0	natural 	1	n	0	0    	 	0.0	0	132.89191920007602	132.991910199984	0.0999909999081865
109625	100	334	stimuli\movArt\train\ma_train10.jpg              	1	5	1	ma_train10.jpg       	movArt   	2	train     	34	train10     	349	not_alive	0	moves	1	artefact	0	n	0	0    	 	0.0	0	133.041919399984	133.141925600008	0.10000620002392697
109775	100	335	stimuli\nonmovNat\rock\nmn_rock10.jpg            	1	5	1	nmn_rock10.jpg       	nonmovNat	5	rock      	30	rock10      	309	not_alive	0	still	0	natural 	1	n	0	0    	 	0.0	0	133.191915899981	133.29190519999202	0.0999893000116571
109925	100	336	stimuli\nonmovArt\bench\nma_bench08.jpg          	1	5	1	nma_bench08.jpg      	nonmovArt	4	bench     	1	bench08     	17	not_alive	0	still	0	artefact	0	n	0	0    	 	0.0	0	133.341912899981	133.441901299986	0.0999884000048041
110075	100	337	stimuli\animals\eagle\animal_eagle10.jpg         	1	5	1	animal_eagle10.jpg   	animals  	0	eagle     	13	eagle10     	139	alive    	1	moves	1	natural 	1	n	0	0    	 	0.0	0	133.4919123	133.591900500003	0.0999882000032812
110225	100	338	stimuli\plant\vine\plant_vine05.jpg              	1	5	1	plant_vine05.jpg     	plant    	6	vine      	36	vine05      	364	alive    	1	still	0	natural 	1	n	0	0    	 	0.0	0	133.64191060001002	133.74190280004402	0.0999922000337392
110375	100	339	stimuli\movNat\fire\mn_fire01.jpg                	1	5	1	mn_fire01.jpg        	movNat   	3	fire      	15	fire01      	150	not_alive	0	moves	1	natural 	1	n	0	0    	 	0.0	0	133.791909200023	133.89189930004102	0.0999901000177487
110525	100	340	stimuli\animals2\tiger\animal_tiger02.jpg        	1	5	1	animal_tiger02.jpg   	animals2 	1	tiger     	33	tiger02     	331	alive    	1	moves	1	natural 	1	n	0	0    	 	0.0	0	133.941908900044	134.041899100062	0.0999902000185102
110675	100	341	stimuli\nonmovNat\cliff\nmn_cliff01.jpg          	1	5	1	nmn_cliff01.jpg      	nonmovNat	5	cliff     	7	cliff01     	70	not_alive	0	still	0	natural 	1	n	0	1    	f	0.0	0	134.091907200054	134.19189730007201	0.0999901000177487
110825	100	342	stimuli\plant\vine\plant_vine09.jpg              	1	5	1	plant_vine09.jpg     	plant    	6	vine      	36	vine09      	368	alive    	1	still	0	natural 	1	n	0	0    	 	0.0	0	134.241905300063	134.341896399972	0.0999910999089479
110975	100	343	stimuli\movNat\waterfall\mn_waterfall03.jpg      	1	5	1	mn_waterfall03.jpg   	movNat   	3	waterfall 	37	waterfall03 	372	not_alive	0	moves	1	natural 	1	n	0	0    	 	0.0	0	134.391904200078	134.49189479998302	0.0999905999051407
111125	100	344	stimuli\plant\cactus\plant_cactus02.jpg          	1	5	1	plant_cactus02.jpg   	plant    	6	cactus    	4	cactus02    	41	alive    	1	still	0	natural 	1	n	0	0    	 	0.0	0	134.541903299978	134.641891899984	0.09998860000632699
111275	100	345	stimuli\plant2\lemontree\plant_lemontree04.jpg   	1	5	1	plant_lemontree04.jpg	plant2   	7	lemontree 	22	lemontree04 	223	alive    	1	still	0	natural 	1	n	0	0    	 	0.0	0	134.691904200008	134.791891200002	0.0999869999941438
111425	100	346	stimuli\plant\cactus\plant_cactus03.jpg          	1	5	1	plant_cactus03.jpg   	plant    	6	cactus    	4	cactus03    	42	alive    	1	still	0	natural 	1	n	0	0    	 	0.0	0	134.841899599996	134.94190440001	0.100004800013267
111575	100	347	stimuli\nonmovArt\mug\nma_mug07.jpg              	1	5	1	nma_mug07.jpg        	nonmovArt	4	mug       	26	mug07       	266	not_alive	0	still	0	artefact	0	n	0	0    	 	0.0	0	134.99189970001999	135.091887600021	0.0999879000009968
111725	100	348	stimuli\movNat\hotspring\mn_hotspring05.jpg      	1	5	1	mn_hotspring05.jpg   	movNat   	3	hotspring 	21	hotspring05 	214	not_alive	0	moves	1	natural 	1	n	1	0    	 	0.0	0	135.141897300025	135.24188670003798	0.0999894000124186
111875	100	349	stimuli\movArt\bus\ma_bus05.jpg                  	1	5	1	ma_bus05.jpg         	movArt   	2	bus       	3	bus05       	34	not_alive	0	moves	1	artefact	0	n	0	0    	 	0.0	0	135.29189440002702	135.391885000048	0.099990600021556
112025	100	350	stimuli\plant2\palmtree\plant_palmtree07.jpg     	1	5	1	plant_palmtree07.jpg 	plant2   	7	palmtree  	27	palmtree07  	276	alive    	1	still	0	natural 	1	n	0	1    	f	0.292111700051464	1	135.441894600051	135.541882000049	0.0999873999971896
112175	100	351	stimuli\plant2\moss\plant_moss08.jpg             	1	5	1	plant_moss08.jpg     	plant2   	7	moss      	25	moss08      	257	alive    	1	still	0	natural 	1	n	0	0    	 	0.0	0	135.591894100071	135.691883999971	0.0999898998998105
112325	100	352	stimuli\animals\dolphin\animal_dolphin02.jpg     	1	5	1	animal_dolphin02.jpg 	animals  	0	dolphin   	12	dolphin02   	121	alive    	1	moves	1	natural 	1	n	0	0    	 	0.0	0	135.741895399988	135.841882999986	0.0999875999987125
112475	100	353	stimuli\nonmovArt\bench\nma_bench01.jpg          	1	5	1	nma_bench01.jpg      	nonmovArt	4	bench     	1	bench01     	10	not_alive	0	still	0	artefact	0	n	0	0    	 	0.0	0	135.891888700076	135.991880499991	0.09999179991427802
112625	100	354	stimuli\animals2\tiger\animal_tiger01.jpg        	1	5	1	animal_tiger01.jpg   	animals2 	1	tiger     	33	tiger01     	330	alive    	1	moves	1	natural 	1	n	0	0    	 	0.0	0	136.041887499974	136.14187869999998	0.0999912000261247
112775	100	355	stimuli\nonmovNat\sand\nmn_sand08.jpg            	1	5	1	nmn_sand08.jpg       	nonmovNat	5	sand      	31	sand08      	317	not_alive	0	still	0	natural 	1	n	0	0    	 	0.0	0	136.191891300026	136.291877100011	0.0999857999850064
112925	100	356	stimuli\plant\grass\plant_grass02.jpg            	1	5	1	plant_grass02.jpg    	plant    	6	grass     	17	grass02     	171	alive    	1	still	0	natural 	1	n	0	0    	 	0.0	0	136.341886800015	136.441876200028	0.0999894000124186
113075	100	357	stimuli\plant\flower\plant_flower06.jpg          	1	5	1	plant_flower06.jpg   	plant    	6	flower    	16	flower06    	165	alive    	1	still	0	natural 	1	n	0	0    	 	0.0	0	136.49188640003598	136.59187390003402	0.099987499997951
113225	100	358	stimuli\plant2\palmtree\plant_palmtree06.jpg     	1	5	1	plant_palmtree06.jpg 	plant2   	7	palmtree  	27	palmtree06  	275	alive    	1	still	0	natural 	1	n	0	0    	 	0.0	0	136.641888000071	136.741874700063	0.0999866999918595
113375	100	359	stimuli\animals\eagle\animal_eagle02.jpg         	1	5	1	animal_eagle02.jpg   	animals  	0	eagle     	13	eagle02     	131	alive    	1	moves	1	natural 	1	n	0	0    	 	0.0	0	136.79188260005301	136.891869700048	0.0999870999949052
113525	100	360	stimuli\nonmovNat\rock\nmn_rock08.jpg            	1	5	1	nmn_rock08.jpg       	nonmovNat	5	rock      	30	rock08      	307	not_alive	0	still	0	natural 	1	n	0	0    	 	0.0	0	136.941881000064	137.04187070007902	0.0999897000147029
113675	100	361	stimuli\movArt\bus\ma_bus08.jpg                  	1	5	1	ma_bus08.jpg         	movArt   	2	bus       	3	bus08       	37	not_alive	0	moves	1	artefact	0	n	0	0    	 	0.0	0	137.091882899986	137.19187129999	0.0999884000048041
113825	100	362	stimuli\animals2\lemur\animal_lemur10.jpg        	1	5	1	animal_lemur10.jpg   	animals2 	1	lemur     	23	lemur10     	239	alive    	1	moves	1	natural 	1	n	0	0    	 	0.0	0	137.241879399982	137.341868299991	0.0999889000086113
113975	100	363	stimuli\animals2\whale\animal_whale05.jpg        	1	5	1	animal_whale05.jpg   	animals2 	1	whale     	39	whale05     	394	alive    	1	moves	1	natural 	1	n	0	0    	 	0.0	0	137.39187609998	137.49186509998998	0.0999890000093728
114125	100	364	stimuli\movArt\bus\ma_bus07.jpg                  	1	5	1	ma_bus07.jpg         	movArt   	2	bus       	3	bus07       	36	not_alive	0	moves	1	artefact	0	n	0	0    	 	0.0	0	137.541876100004	137.64186860004	0.0999925000360235
114275	100	365	stimuli\plant\grass\plant_grass02.jpg            	1	5	1	plant_grass02.jpg    	plant    	6	grass     	17	grass02     	171	alive    	1	still	0	natural 	1	n	0	0    	 	0.0	0	137.691874100012	137.79186270001802	0.09998860000632699
114425	100	366	stimuli\nonmovNat\cliff\nmn_cliff01.jpg          	1	5	1	nmn_cliff01.jpg      	nonmovNat	5	cliff     	7	cliff01     	70	not_alive	0	still	0	natural 	1	n	0	0    	 	0.0	0	137.841873600031	137.94186040002398	0.0999867999926209
114575	100	367	stimuli\animals2\whale\animal_whale01.jpg        	1	5	1	animal_whale01.jpg   	animals2 	1	whale     	39	whale01     	390	alive    	1	moves	1	natural 	1	n	0	0    	 	0.0	0	137.991871900042	138.09186230006202	0.0999904000200331
114725	100	368	stimuli\animals2\bee\animal_bee05.jpg            	1	5	1	animal_bee05.jpg     	animals2 	1	bee       	0	bee05       	4	alive    	1	moves	1	natural 	1	n	0	0    	 	0.0	0	138.141868800041	138.241860200069	0.0999914000276476
114875	100	369	stimuli\nonmovNat\rock\nmn_rock04.jpg            	1	5	1	nmn_rock04.jpg       	nonmovNat	5	rock      	30	rock04      	303	not_alive	0	still	0	natural 	1	n	0	0    	 	0.0	0	138.291866800049	138.391856200062	0.0999894000124186
115025	100	370	stimuli\animals2\tiger\animal_tiger09.jpg        	1	5	1	animal_tiger09.jpg   	animals2 	1	tiger     	33	tiger09     	338	alive    	1	moves	1	natural 	1	n	0	0    	 	0.0	0	138.44187770003902	138.541857399978	0.099979699938558
115175	100	371	stimuli\movArt\train\ma_train07.jpg              	1	5	1	ma_train07.jpg       	movArt   	2	train     	34	train07     	346	not_alive	0	moves	1	artefact	0	n	0	0    	 	0.0	0	138.591868299991	138.691855399986	0.0999870999949052
115325	100	372	stimuli\plant2\lemontree\plant_lemontree05.jpg   	1	5	1	plant_lemontree05.jpg	plant2   	7	lemontree 	22	lemontree05 	224	alive    	1	still	0	natural 	1	n	0	0    	 	0.0	0	138.74186219996798	138.841855700011	0.099993500043638
115475	100	373	stimuli\plant\tree\plant_tree09.jpg              	1	5	1	plant_tree09.jpg     	plant    	6	tree      	35	tree09      	358	alive    	1	still	0	natural 	1	n	0	0    	 	0.0	0	138.89186269999502	138.991851600003	0.0999889000086113
115625	100	374	stimuli\animals2\bee\animal_bee01.jpg            	1	5	1	animal_bee01.jpg     	animals2 	1	bee       	0	bee01       	0	alive    	1	moves	1	natural 	1	n	0	0    	 	0.0	0	139.041861700011	139.141851000022	0.0999893000116571
115775	100	375	stimuli\animals\cat\animal_cat08.jpg             	1	5	1	animal_cat08.jpg     	animals  	0	cat       	6	cat08       	67	alive    	1	moves	1	natural 	1	n	0	0    	 	0.0	0	139.19186260004102	139.291849800036	0.0999871999956667
115925	100	376	stimuli\animals\cat\animal_cat10.jpg             	1	5	1	animal_cat10.jpg     	animals  	0	cat       	6	cat10       	69	alive    	1	moves	1	natural 	1	n	0	0    	 	0.0	0	139.341858600033	139.441846900037	0.0999883000040426
116075	100	377	stimuli\movNat\river\mn_river07.jpg              	1	5	1	mn_river07.jpg       	movNat   	3	river     	29	river07     	296	not_alive	0	moves	1	natural 	1	n	0	0    	 	0.0	0	139.491856900044	139.59184620005502	0.0999893000116571
116225	100	378	stimuli\animals2\lemur\animal_lemur04.jpg        	1	5	1	animal_lemur04.jpg   	animals2 	1	lemur     	23	lemur04     	233	alive    	1	moves	1	natural 	1	n	0	0    	 	0.0	0	139.64185470005	139.741845400073	0.0999907000223174
116375	100	379	stimuli\movNat\river\mn_river06.jpg              	1	5	1	mn_river06.jpg       	movNat   	3	river     	29	river06     	295	not_alive	0	moves	1	natural 	1	n	0	0    	 	0.0	0	139.791853600065	139.891843400081	0.0999898000154644
116525	100	380	stimuli\animals\eagle\animal_eagle02.jpg         	1	5	1	animal_eagle02.jpg   	animals  	0	eagle     	13	eagle02     	131	alive    	1	moves	1	natural 	1	n	0	0    	 	0.0	0	139.941852700082	140.04184279998302	0.0999900999013334
116675	100	381	stimuli\plant2\fern\plant_fern01.jpg             	1	5	1	plant_fern01.jpg     	plant2   	7	fern      	14	fern01      	140	alive    	1	still	0	natural 	1	n	0	0    	 	0.0	0	140.091852199985	140.191849200055	0.0999970000702887
116825	100	382	stimuli\animals\dog\animal_dog10.jpg             	1	5	1	animal_dog10.jpg     	animals  	0	dog       	11	dog10       	119	alive    	1	moves	1	natural 	1	n	0	0    	 	0.0	0	140.241876500077	140.341865399969	0.099988899892196
116975	100	383	stimuli\plant\vine\plant_vine08.jpg              	1	5	1	plant_vine08.jpg     	plant    	6	vine      	36	vine08      	367	alive    	1	still	0	natural 	1	n	0	0    	 	0.0	0	140.391849600011	140.491841600044	0.0999920000322163
117125	100	384	stimuli\nonmovNat\rock\nmn_rock06.jpg            	1	5	1	nmn_rock06.jpg       	nonmovNat	5	rock      	30	rock06      	305	not_alive	0	still	0	natural 	1	n	0	0    	 	0.0	0	140.541848500026	140.641834800015	0.0999862999888137
117275	100	385	stimuli\nonmovNat\cliff\nmn_cliff05.jpg          	1	5	1	nmn_cliff05.jpg      	nonmovNat	5	cliff     	7	cliff05     	74	not_alive	0	still	0	natural 	1	n	0	0    	 	0.0	0	140.691847700044	140.791836800054	0.0999891000101342
117425	100	386	stimuli\nonmovArt\lock\nma_lock08.jpg            	1	5	1	nma_lock08.jpg       	nonmovArt	4	lock      	24	lock08      	247	not_alive	0	still	0	artefact	0	n	0	0    	 	0.0	0	140.84184480004498	140.941834200057	0.0999894000124186
117575	100	387	stimuli\plant2\lemontree\plant_lemontree10.jpg   	1	5	1	plant_lemontree10.jpg	plant2   	7	lemontree 	22	lemontree10 	229	alive    	1	still	0	natural 	1	n	1	0    	 	0.0	0	140.991844800068	141.09183430008102	0.09998950001317998
117725	100	388	stimuli\animals2\pigeon\animal_pigeon10.jpg      	1	5	1	animal_pigeon10.jpg  	animals2 	1	pigeon    	28	pigeon10    	289	alive    	1	moves	1	natural 	1	n	0	1    	f	0.255746499984525	1	141.14184310007798	141.241831999971	0.099988899892196
117875	100	389	stimuli\plant\cactus\plant_cactus05.jpg          	1	5	1	plant_cactus05.jpg   	plant    	6	cactus    	4	cactus05    	44	alive    	1	still	0	natural 	1	n	0	0    	 	0.0	0	141.291838800069	141.391842600075	0.100003800005652
118025	100	390	stimuli\movArt\boat\ma_boat01.jpg                	1	5	1	ma_boat01.jpg        	movArt   	2	boat      	2	boat01      	20	not_alive	0	moves	1	artefact	0	n	0	0    	 	0.0	0	141.441839699983	141.541830200003	0.0999905000207945
118175	100	391	stimuli\movNat\fire\mn_fire09.jpg                	1	5	1	mn_fire09.jpg        	movNat   	3	fire      	15	fire09      	158	not_alive	0	moves	1	natural 	1	n	0	0    	 	0.0	0	141.591838599998	141.691827300005	0.0999887000070884
118325	100	392	stimuli\nonmovArt\mug\nma_mug09.jpg              	1	5	1	nma_mug09.jpg        	nonmovArt	4	mug       	26	mug09       	268	not_alive	0	still	0	artefact	0	n	0	0    	 	0.0	0	141.741837500012	141.841829300043	0.0999918000306934
118475	100	393	stimuli\plant2\moss\plant_moss05.jpg             	1	5	1	plant_moss05.jpg     	plant2   	7	moss      	25	moss05      	254	alive    	1	still	0	natural 	1	n	0	0    	 	0.0	0	141.89183680003	141.991833999986	0.0999971999553963
118625	100	394	stimuli\plant2\moss\plant_moss02.jpg             	1	5	1	plant_moss02.jpg     	plant2   	7	moss      	25	moss02      	251	alive    	1	still	0	natural 	1	n	0	0    	 	0.0	0	142.04184770001999	142.141825000057	0.0999773000366985
118775	100	395	stimuli\movArt\car\ma_car10.jpg                  	1	5	1	ma_car10.jpg         	movArt   	2	car       	5	car10       	59	not_alive	0	moves	1	artefact	0	n	0	0    	 	0.0	0	142.191832600045	142.291821100051	0.0999885000055655
118925	100	396	stimuli\animals\eagle\animal_eagle09.jpg         	1	5	1	animal_eagle09.jpg   	animals  	0	eagle     	13	eagle09     	138	alive    	1	moves	1	natural 	1	n	0	0    	 	0.0	0	142.341829800047	142.441818600055	0.0999888000078499
119075	100	397	stimuli\movNat\river\mn_river04.jpg              	1	5	1	mn_river04.jpg       	movNat   	3	river     	29	river04     	293	not_alive	0	moves	1	natural 	1	n	0	0    	 	0.0	0	142.49182810005698	142.592522599967	0.100694499909878
119226	100	398	stimuli\nonmovNat\sand\nmn_sand03.jpg            	1	5	1	nmn_sand03.jpg       	nonmovNat	5	sand      	31	sand03      	312	not_alive	0	still	0	natural 	1	n	0	0    	 	0.0	0	142.642715100083	142.742629399989	0.0999142999062314
119376	100	399	stimuli\movArt\boat\ma_boat07.jpg                	1	5	1	ma_boat07.jpg        	movArt   	2	boat      	2	boat07      	26	not_alive	0	moves	1	artefact	0	n	0	0    	 	0.0	0	142.792709300062	142.892613400007	0.0999040999449789
122060	100	400	stimuli\movArt\boat\ma_boat10.jpg                	1	6	1	ma_boat10.jpg        	movArt   	2	boat      	2	boat10      	29	not_alive	0	moves	1	artefact	0	n	0	1    	f	0.0	0	145.476008099969	145.57589810004	0.0998900000704452
122210	100	401	stimuli\movArt\train\ma_train10.jpg              	1	6	1	ma_train10.jpg       	movArt   	2	train     	34	train10     	349	not_alive	0	moves	1	artefact	0	n	0	0    	 	0.0	0	145.625972900074	145.725894500036	0.0999215999618172
122360	100	402	stimuli\nonmovNat\crystal\nmn_crystal05.jpg      	1	6	1	nmn_crystal05.jpg    	nonmovNat	5	crystal   	10	crystal05   	104	not_alive	0	still	0	natural 	1	n	0	0    	 	0.0	0	145.77599730005	145.875889800023	0.0998924999730661
122510	100	403	stimuli\movNat\fire\mn_fire08.jpg                	1	6	1	mn_fire08.jpg        	movNat   	3	fire      	15	fire08      	157	not_alive	0	moves	1	natural 	1	n	0	0    	 	0.0	0	145.925988800009	146.025877000066	0.0998882000567391
122660	100	404	stimuli\plant\grass\plant_grass10.jpg            	1	6	1	plant_grass10.jpg    	plant    	6	grass     	17	grass10     	179	alive    	1	still	0	natural 	1	n	0	0    	 	0.0	0	146.076004800037	146.175901600043	0.0998968000058084
122810	100	405	stimuli\nonmovArt\clothespeg\nma_clothespeg07.jpg	1	6	1	nma_clothespeg07.jpg 	nonmovArt	4	clothespeg	8	clothespeg07	86	not_alive	0	still	0	artefact	0	n	0	0    	 	0.0	0	146.225983500015	146.325899300049	0.0999158000340685
122960	100	406	stimuli\nonmovArt\headphones\nma_headphones01.jpg	1	6	1	nma_headphones01.jpg 	nonmovArt	4	headphones	18	headphones01	180	not_alive	0	still	0	artefact	0	n	0	0    	 	0.0	0	146.376008499996	146.475899800076	0.09989130008034401
123110	100	407	stimuli\movArt\bus\ma_bus03.jpg                  	1	6	1	ma_bus03.jpg         	movArt   	2	bus       	3	bus03       	32	not_alive	0	moves	1	artefact	0	n	0	0    	 	0.0	0	146.526024200022	146.625875100028	0.0998509000055492
123260	100	408	stimuli\movNat\waterfall\mn_waterfall02.jpg      	1	6	1	mn_waterfall02.jpg   	movNat   	3	waterfall 	37	waterfall02 	371	not_alive	0	moves	1	natural 	1	n	0	0    	 	0.0	0	146.675985999987	146.775885300012	0.0998993000248447
123410	100	409	stimuli\animals\horse\animal_horse09.jpg         	1	6	1	animal_horse09.jpg   	animals  	0	horse     	20	horse09     	208	alive    	1	moves	1	natural 	1	n	0	0    	 	0.0	0	146.82599250006	146.925981000066	0.0999885000055655
123560	100	410	stimuli\nonmovNat\sand\nmn_sand09.jpg            	1	6	1	nmn_sand09.jpg       	nonmovNat	5	sand      	31	sand09      	318	not_alive	0	still	0	natural 	1	n	0	0    	 	0.0	0	146.97607430000798	147.07592059997802	0.0998462999705225
123710	100	411	stimuli\nonmovArt\clothespeg\nma_clothespeg04.jpg	1	6	1	nma_clothespeg04.jpg 	nonmovArt	4	clothespeg	8	clothespeg04	83	not_alive	0	still	0	artefact	0	n	0	0    	 	0.0	0	147.1259632	147.225871499977	0.0999082999769598
123860	100	412	stimuli\animals2\whale\animal_whale08.jpg        	1	6	1	animal_whale08.jpg   	animals2 	1	whale     	39	whale08     	397	alive    	1	moves	1	natural 	1	n	0	0    	 	0.0	0	147.27597690001102	147.375858100015	0.0998812000034377
124010	100	413	stimuli\nonmovNat\sand\nmn_sand06.jpg            	1	6	1	nmn_sand06.jpg       	nonmovNat	5	sand      	31	sand06      	315	not_alive	0	still	0	natural 	1	n	0	0    	 	0.0	0	147.42593939998198	147.525871400023	0.09993200004100801
124160	100	414	stimuli\movArt\train\ma_train05.jpg              	1	6	1	ma_train05.jpg       	movArt   	2	train     	34	train05     	344	not_alive	0	moves	1	artefact	0	n	0	0    	 	0.0	0	147.575964000076	147.67587230005302	0.0999082999769598
124310	100	415	stimuli\movNat\fire\mn_fire07.jpg                	1	6	1	mn_fire07.jpg        	movNat   	3	fire      	15	fire07      	156	not_alive	0	moves	1	natural 	1	n	0	0    	 	0.0	0	147.725950499997	147.82588020001998	0.0999297000234946
124460	100	416	stimuli\plant\cactus\plant_cactus04.jpg          	1	6	1	plant_cactus04.jpg   	plant    	6	cactus    	4	cactus04    	43	alive    	1	still	0	natural 	1	n	0	0    	 	0.0	0	147.87596650002502	147.975870699971	0.0999041999457404
124610	100	417	stimuli\nonmovNat\crystal\nmn_crystal05.jpg      	1	6	1	nmn_crystal05.jpg    	nonmovNat	5	crystal   	10	crystal05   	104	not_alive	0	still	0	natural 	1	n	0	0    	 	0.0	0	148.02595430007202	148.12586400006	0.0999096999876201
124760	100	418	stimuli\nonmovNat\crystal\nmn_crystal02.jpg      	1	6	1	nmn_crystal02.jpg    	nonmovNat	5	crystal   	10	crystal02   	101	not_alive	0	still	0	natural 	1	n	0	0    	 	0.0	0	148.17596360004998	148.27587230003002	0.0999086999800056
