onset	duration	eventnumber	stimulus_file	blockno	trialno	is_faststream	stim	stim_category	category_number	exemplar	exemplar_number	image_name	image_number	aliveness	aliveness_bin	movement	movement_bin	naturalness	naturalness_bin	response_hand_moves	istarget	response	keypressed	rt	correct	time_stimon	time_stimoff	stimdur
48725	100	0	stimuli\plant\tree\plant_tree05.jpg              	1	1	1	plant_tree05.jpg     	plant    	6	tree      	35	tree05      	354	alive    	1	still	0	natural 	1	n	0	0    	 	0.0	0	299.49144040001596	299.591332699871	0.0998922998551279
48875	100	1	stimuli\movNat\hotspring\mn_hotspring10.jpg      	1	1	1	mn_hotspring10.jpg   	movNat   	3	hotspring 	21	hotspring10 	219	not_alive	0	moves	1	natural 	1	n	0	0    	 	0.0	0	299.641457499936	299.741330199875	0.0998726999387145
49025	100	2	stimuli\movNat\waves\mn_waves02.jpg              	1	1	1	mn_waves02.jpg       	movNat   	3	waves     	38	waves02     	381	not_alive	0	moves	1	natural 	1	n	0	0    	 	0.0	0	299.791427699849	299.891321099829	0.0998933999799192
49175	100	3	stimuli\plant\flower\plant_flower08.jpg          	1	1	1	plant_flower08.jpg   	plant    	6	flower    	16	flower08    	167	alive    	1	still	0	natural 	1	n	0	0    	 	0.0	0	299.941404599929	300.041309899883	0.0999052999541163
49325	100	4	stimuli\movArt\train\ma_train10.jpg              	1	1	1	ma_train10.jpg       	movArt   	2	train     	34	train10     	349	not_alive	0	moves	1	artefact	0	n	0	0    	 	0.0	0	300.09140639985003	300.191305099986	0.0998987001366913
49475	100	5	stimuli\movArt\bus\ma_bus03.jpg                  	1	1	1	ma_bus03.jpg         	movArt   	2	bus       	3	bus03       	32	not_alive	0	moves	1	artefact	0	n	0	0    	 	0.0	0	300.24141049990396	300.341329199961	0.0999187000561505
49625	100	6	stimuli\nonmovArt\lock\nma_lock04.jpg            	1	1	1	nma_lock04.jpg       	nonmovArt	4	lock      	24	lock04      	243	not_alive	0	still	0	artefact	0	n	0	0    	 	0.0	0	300.391415899852	300.491317099892	0.0999012000393122
49775	100	7	stimuli\movNat\river\mn_river02.jpg              	1	1	1	mn_river02.jpg       	movNat   	3	river     	29	river02     	291	not_alive	0	moves	1	natural 	1	n	0	0    	 	0.0	0	300.54141830001	300.641322199954	0.099903899943456
49926	100	8	stimuli\nonmovArt\lock\nma_lock09.jpg            	1	1	1	nma_lock09.jpg       	nonmovArt	4	lock      	24	lock09      	248	not_alive	0	still	0	artefact	0	n	0	0    	 	0.0	0	300.691817399813	300.791316599818	0.0994992000050842
50075	100	9	stimuli\nonmovArt\mug\nma_mug05.jpg              	1	1	1	nma_mug05.jpg        	nonmovArt	4	mug       	26	mug05       	264	not_alive	0	still	0	artefact	0	n	0	0    	 	0.0	0	300.84141419990897	300.94129859982104	0.0998843999113887
50225	100	10	stimuli\animals\horse\animal_horse03.jpg         	1	1	1	animal_horse03.jpg   	animals  	0	horse     	20	horse03     	202	alive    	1	moves	1	natural 	1	n	0	0    	 	0.0	0	300.99138659983896	301.091308699921	0.0999221000820398
50375	100	11	stimuli\plant\cactus\plant_cactus10.jpg          	1	1	1	plant_cactus10.jpg   	plant    	6	cactus    	4	cactus10    	49	alive    	1	still	0	natural 	1	n	0	0    	 	0.0	0	301.14142349991	301.241301300004	0.0998778000939637
50525	100	12	stimuli\nonmovNat\cliff\nmn_cliff06.jpg          	1	1	1	nmn_cliff06.jpg      	nonmovNat	5	cliff     	7	cliff06     	75	not_alive	0	still	0	natural 	1	n	0	0    	 	0.0	0	301.291411299957	301.391305699944	0.0998943999875336
50675	100	13	stimuli\animals\eagle\animal_eagle09.jpg         	1	1	1	animal_eagle09.jpg   	animals  	0	eagle     	13	eagle09     	138	alive    	1	moves	1	natural 	1	n	0	0    	 	0.0	0	301.44139699987096	301.541326199891	0.0999292000196874
50825	100	14	stimuli\movNat\waterfall\mn_waterfall04.jpg      	1	1	1	mn_waterfall04.jpg   	movNat   	3	waterfall 	37	waterfall04 	373	not_alive	0	moves	1	natural 	1	n	0	0    	 	0.0	0	301.591396200005	301.69130029995	0.0999040999449789
50975	100	15	stimuli\plant\vine\plant_vine10.jpg              	1	1	1	plant_vine10.jpg     	plant    	6	vine      	36	vine10      	369	alive    	1	still	0	natural 	1	n	0	0    	 	0.0	0	301.741393399891	301.841314099962	0.0999207000713795
51125	100	16	stimuli\nonmovNat\rock\nmn_rock06.jpg            	1	1	1	nmn_rock06.jpg       	nonmovNat	5	rock      	30	rock06      	305	not_alive	0	still	0	natural 	1	n	0	0    	 	0.0	0	301.891403299989	301.991297299974	0.0998939999844878
51275	100	17	stimuli\movNat\waves\mn_waves02.jpg              	1	1	1	mn_waves02.jpg       	movNat   	3	waves     	38	waves02     	381	not_alive	0	moves	1	natural 	1	n	0	0    	 	0.0	0	302.041380699957	302.141307599842	0.0999268998857587
51425	100	18	stimuli\plant\cactus\plant_cactus06.jpg          	1	1	1	plant_cactus06.jpg   	plant    	6	cactus    	4	cactus06    	45	alive    	1	still	0	natural 	1	n	0	0    	 	0.0	0	302.191400700016	302.291287499946	0.0998867999296635
51575	100	19	stimuli\movArt\car\ma_car06.jpg                  	1	1	1	ma_car06.jpg         	movArt   	2	car       	5	car06       	55	not_alive	0	moves	1	artefact	0	n	0	0    	 	0.0	0	302.341397899901	302.441461199894	0.10006329999305301
51725	100	20	stimuli\nonmovArt\clothespeg\nma_clothespeg07.jpg	1	1	1	nma_clothespeg07.jpg 	nonmovArt	4	clothespeg	8	clothespeg07	86	not_alive	0	still	0	artefact	0	n	0	0    	 	0.0	0	302.491490599932	302.591274299892	0.0997836999595165
51875	100	21	stimuli\nonmovNat\cliff\nmn_cliff03.jpg          	1	1	1	nmn_cliff03.jpg      	nonmovNat	5	cliff     	7	cliff03     	72	not_alive	0	still	0	natural 	1	n	0	0    	 	0.0	0	302.64138649986097	302.741294799838	0.0999082999769598
52025	100	22	stimuli\plant\flower\plant_flower05.jpg          	1	1	1	plant_flower05.jpg   	plant    	6	flower    	16	flower05    	164	alive    	1	still	0	natural 	1	n	0	0    	 	0.0	0	302.79137509991403	302.891283999896	0.0999088999815285
52175	100	23	stimuli\animals2\lemur\animal_lemur10.jpg        	1	1	1	animal_lemur10.jpg   	animals2 	1	lemur     	23	lemur10     	239	alive    	1	moves	1	natural 	1	n	0	0    	 	0.0	0	302.941376099829	303.041295999894	0.0999199000652879
52325	100	24	stimuli\animals\cat\animal_cat02.jpg             	1	1	1	animal_cat02.jpg     	animals  	0	cat       	6	cat02       	61	alive    	1	moves	1	natural 	1	n	0	0    	 	0.0	0	303.091371199815	303.191290999996	0.0999198001809418
52475	100	25	stimuli\animals\eagle\animal_eagle04.jpg         	1	1	1	animal_eagle04.jpg   	animals  	0	eagle     	13	eagle04     	133	alive    	1	moves	1	natural 	1	n	1	0    	 	0.0	0	303.241373499855	303.341272599995	0.0998991001397371
52625	100	26	stimuli\animals\horse\animal_horse01.jpg         	1	1	1	animal_horse01.jpg   	animals  	0	horse     	20	horse01     	200	alive    	1	moves	1	natural 	1	n	0	0    	 	0.0	0	303.391367799835	303.491282999981	0.0999152001459151
52775	100	27	stimuli\plant2\clover\plant_clover06.jpg         	1	1	1	plant_clover06.jpg   	plant2   	7	clover    	9	clover06    	95	alive    	1	still	0	natural 	1	n	0	1    	f	0.30542750004679	1	303.541394699831	303.64128550002397	0.0998908001929521
52925	100	28	stimuli\animals2\whale\animal_whale05.jpg        	1	1	1	animal_whale05.jpg   	animals2 	1	whale     	39	whale05     	394	alive    	1	moves	1	natural 	1	n	0	0    	 	0.0	0	303.691356000025	303.791286999825	0.0999309998005628
53075	100	29	stimuli\movNat\river\mn_river03.jpg              	1	1	1	mn_river03.jpg       	movNat   	3	river     	29	river03     	292	not_alive	0	moves	1	natural 	1	n	0	0    	 	0.0	0	303.841375699965	303.941285099834	0.0999093998689204
53225	100	30	stimuli\plant2\moss\plant_moss07.jpg             	1	1	1	plant_moss07.jpg     	plant2   	7	moss      	25	moss07      	256	alive    	1	still	0	natural 	1	n	0	0    	 	0.0	0	303.991359599866	304.091336800018	0.0999772001523524
53375	100	31	stimuli\movArt\helicopter\ma_helicopter01.jpg    	1	1	1	ma_helicopter01.jpg  	movArt   	2	helicopter	19	helicopter01	190	not_alive	0	moves	1	artefact	0	n	0	0    	 	0.0	0	304.141338899964	304.24128680001	0.0999479000456631
53525	100	32	stimuli\animals2\lemur\animal_lemur04.jpg        	1	1	1	animal_lemur04.jpg   	animals2 	1	lemur     	23	lemur04     	233	alive    	1	moves	1	natural 	1	n	0	0    	 	0.0	0	304.291463800008	304.391279199859	0.09981539985165
53675	100	33	stimuli\plant2\lemontree\plant_lemontree04.jpg   	1	1	1	plant_lemontree04.jpg	plant2   	7	lemontree 	22	lemontree04 	223	alive    	1	still	0	natural 	1	n	0	0    	 	0.0	0	304.441349299857	304.541273899842	0.0999245999846607
53825	100	34	stimuli\animals2\pigeon\animal_pigeon05.jpg      	1	1	1	animal_pigeon05.jpg  	animals2 	1	pigeon    	28	pigeon05    	284	alive    	1	moves	1	natural 	1	n	0	0    	 	0.0	0	304.591380099999	304.691272999859	0.0998928998596966
53975	100	35	stimuli\animals2\pigeon\animal_pigeon08.jpg      	1	1	1	animal_pigeon08.jpg  	animals2 	1	pigeon    	28	pigeon08    	287	alive    	1	moves	1	natural 	1	n	0	0    	 	0.0	0	304.741355199832	304.841284999857	0.0999298000242561
54125	100	36	stimuli\nonmovArt\mug\nma_mug08.jpg              	1	1	1	nma_mug08.jpg        	nonmovArt	4	mug       	26	mug08       	267	not_alive	0	still	0	artefact	0	n	0	0    	 	0.0	0	304.891355599975	304.991255200002	0.099899600027129
54275	100	37	stimuli\nonmovArt\bench\nma_bench02.jpg          	1	1	1	nma_bench02.jpg      	nonmovArt	4	bench     	1	bench02     	11	not_alive	0	still	0	artefact	0	n	0	0    	 	0.0	0	305.041366499849	305.141281299992	0.0999148001428693
54425	100	38	stimuli\animals\eagle\animal_eagle07.jpg         	1	1	1	animal_eagle07.jpg   	animals  	0	eagle     	13	eagle07     	136	alive    	1	moves	1	natural 	1	n	0	0    	 	0.0	0	305.191374199931	305.29126750002604	0.09989330009557301
54575	100	39	stimuli\nonmovNat\sand\nmn_sand10.jpg            	1	1	1	nmn_sand10.jpg       	nonmovNat	5	sand      	31	sand10      	319	not_alive	0	still	0	natural 	1	n	0	0    	 	0.0	0	305.34136449988	305.441262200009	0.0998977001290768
54725	100	40	stimuli\animals2\lemur\animal_lemur10.jpg        	1	1	1	animal_lemur10.jpg   	animals2 	1	lemur     	23	lemur10     	239	alive    	1	moves	1	natural 	1	n	0	0    	 	0.0	0	305.491370999953	305.591252799844	0.099881799891591
54875	100	41	stimuli\nonmovNat\rock\nmn_rock05.jpg            	1	1	1	nmn_rock05.jpg       	nonmovNat	5	rock      	30	rock05      	304	not_alive	0	still	0	natural 	1	n	0	0    	 	0.0	0	305.641352299834	305.74124859995203	0.0998963001184165
55025	100	42	stimuli\nonmovArt\headphones\nma_headphones08.jpg	1	1	1	nma_headphones08.jpg 	nonmovArt	4	headphones	18	headphones08	187	not_alive	0	still	0	artefact	0	n	0	0    	 	0.0	0	305.791344299912	305.891259799944	0.0999155000317841
55175	100	43	stimuli\movArt\car\ma_car04.jpg                  	1	1	1	ma_car04.jpg         	movArt   	2	car       	5	car04       	53	not_alive	0	moves	1	artefact	0	n	1	0    	 	0.0	0	305.941375499824	306.041259199846	0.0998837000224739
55325	100	44	stimuli\plant2\fern\plant_fern06.jpg             	1	1	1	plant_fern06.jpg     	plant2   	7	fern      	14	fern06      	145	alive    	1	still	0	natural 	1	n	0	0    	 	0.0	0	306.091389799956	306.19125879998296	0.0998690000269562
55475	100	45	stimuli\plant2\palmtree\plant_palmtree08.jpg     	1	1	1	plant_palmtree08.jpg 	plant2   	7	palmtree  	27	palmtree08  	277	alive    	1	still	0	natural 	1	n	0	1    	f	0.292015800019726	1	306.24135879986	306.341260100016	0.099901300156489
55625	100	46	stimuli\nonmovArt\clothespeg\nma_clothespeg08.jpg	1	1	1	nma_clothespeg08.jpg 	nonmovArt	4	clothespeg	8	clothespeg08	87	not_alive	0	still	0	artefact	0	n	0	0    	 	0.0	0	306.391327699879	306.491270900005	0.0999432001262903
55775	100	47	stimuli\animals\dolphin\animal_dolphin05.jpg     	1	1	1	animal_dolphin05.jpg 	animals  	0	dolphin   	12	dolphin05   	124	alive    	1	moves	1	natural 	1	n	0	0    	 	0.0	0	306.541350199841	306.64124529995	0.0998951001092791
55925	100	48	stimuli\nonmovArt\headphones\nma_headphones02.jpg	1	1	1	nma_headphones02.jpg 	nonmovArt	4	headphones	18	headphones02	181	not_alive	0	still	0	artefact	0	n	0	0    	 	0.0	0	306.691353800008	306.791251099901	0.0998972998932004
56075	100	49	stimuli\animals2\tiger\animal_tiger07.jpg        	1	1	1	animal_tiger07.jpg   	animals2 	1	tiger     	33	tiger07     	336	alive    	1	moves	1	natural 	1	n	0	0    	 	0.0	0	306.841349499999	306.941266199807	0.0999166998080909
56225	100	50	stimuli\movNat\hotspring\mn_hotspring05.jpg      	1	1	1	mn_hotspring05.jpg   	movNat   	3	hotspring 	21	hotspring05 	214	not_alive	0	moves	1	natural 	1	n	0	0    	 	0.0	0	306.991335100029	307.091240699869	0.0999055998399853
56375	100	51	stimuli\animals2\bee\animal_bee02.jpg            	1	1	1	animal_bee02.jpg     	animals2 	1	bee       	0	bee02       	1	alive    	1	moves	1	natural 	1	n	0	0    	 	0.0	0	307.14133569994	307.241235099966	0.0998994000256061
56525	100	52	stimuli\plant2\moss\plant_moss10.jpg             	1	1	1	plant_moss10.jpg     	plant2   	7	moss      	25	moss10      	259	alive    	1	still	0	natural 	1	n	0	0    	 	0.0	0	307.291331499815	307.391238299897	0.0999068000819534
56675	100	53	stimuli\movNat\fire\mn_fire09.jpg                	1	1	1	mn_fire09.jpg        	movNat   	3	fire      	15	fire09      	158	not_alive	0	moves	1	natural 	1	n	0	0    	 	0.0	0	307.441346299834	307.541236799909	0.0998905000742524
56825	100	54	stimuli\animals2\tiger\animal_tiger03.jpg        	1	1	1	animal_tiger03.jpg   	animals2 	1	tiger     	33	tiger03     	332	alive    	1	moves	1	natural 	1	n	0	0    	 	0.0	0	307.59134379983897	307.69122379994997	0.0998800001107156
56975	100	55	stimuli\plant\flower\plant_flower07.jpg          	1	1	1	plant_flower07.jpg   	plant    	6	flower    	16	flower07    	166	alive    	1	still	0	natural 	1	n	0	0    	 	0.0	0	307.741324699949	307.841238899855	0.09991419990547
57125	100	56	stimuli\animals\cat\animal_cat01.jpg             	1	1	1	animal_cat01.jpg     	animals  	0	cat       	6	cat01       	60	alive    	1	moves	1	natural 	1	n	0	0    	 	0.0	0	307.89135619997995	307.99123239982896	0.0998761998489499
57275	100	57	stimuli\animals\cat\animal_cat03.jpg             	1	1	1	animal_cat03.jpg     	animals  	0	cat       	6	cat03       	62	alive    	1	moves	1	natural 	1	n	0	0    	 	0.0	0	308.041338599986	308.141224300023	0.0998857000377029
57425	100	58	stimuli\nonmovNat\cliff\nmn_cliff07.jpg          	1	1	1	nmn_cliff07.jpg      	nonmovNat	5	cliff     	7	cliff07     	76	not_alive	0	still	0	natural 	1	n	0	0    	 	0.0	0	308.191313699819	308.291228799848	0.0999151000287383
57575	100	59	stimuli\animals\dolphin\animal_dolphin08.jpg     	1	1	1	animal_dolphin08.jpg 	animals  	0	dolphin   	12	dolphin08   	127	alive    	1	moves	1	natural 	1	n	0	0    	 	0.0	0	308.34132979996497	308.44123489991796	0.0999050999525934
57725	100	60	stimuli\animals\dog\animal_dog02.jpg             	1	1	1	animal_dog02.jpg     	animals  	0	dog       	11	dog02       	111	alive    	1	moves	1	natural 	1	n	0	0    	 	0.0	0	308.491327499971	308.59123829985003	0.0999107998795807
57875	100	61	stimuli\nonmovArt\lock\nma_lock05.jpg            	1	1	1	nma_lock05.jpg       	nonmovArt	4	lock      	24	lock05      	244	not_alive	0	still	0	artefact	0	n	0	0    	 	0.0	0	308.64133569994	308.741226800019	0.0998911000788211
58025	100	62	stimuli\movArt\boat\ma_boat10.jpg                	1	1	1	ma_boat10.jpg        	movArt   	2	boat      	2	boat10      	29	not_alive	0	moves	1	artefact	0	n	0	0    	 	0.0	0	308.791312699905	308.891237299889	0.0999245999846607
58175	100	63	stimuli\movNat\waves\mn_waves10.jpg              	1	1	1	mn_waves10.jpg       	movNat   	3	waves     	38	waves10     	389	not_alive	0	moves	1	natural 	1	n	0	0    	 	0.0	0	308.941307399888	309.041230799863	0.0999233999755233
58325	100	64	stimuli\nonmovArt\bench\nma_bench02.jpg          	1	1	1	nma_bench02.jpg      	nonmovArt	4	bench     	1	bench02     	11	not_alive	0	still	0	artefact	0	n	0	0    	 	0.0	0	309.09131859987997	309.191226699855	0.0999080999754369
58475	100	65	stimuli\movArt\bus\ma_bus08.jpg                  	1	1	1	ma_bus08.jpg         	movArt   	2	bus       	3	bus08       	37	not_alive	0	moves	1	artefact	0	n	0	0    	 	0.0	0	309.24132569995703	309.341222199844	0.0998964998871088
58625	100	66	stimuli\plant\tree\plant_tree07.jpg              	1	1	1	plant_tree07.jpg     	plant    	6	tree      	35	tree07      	356	alive    	1	still	0	natural 	1	n	0	0    	 	0.0	0	309.39132689987304	309.49125359999	0.0999267001170665
58775	100	67	stimuli\plant2\fern\plant_fern10.jpg             	1	1	1	plant_fern10.jpg     	plant2   	7	fern      	14	fern10      	149	alive    	1	still	0	natural 	1	n	1	0    	 	0.0	0	309.54118479997896	309.64122879994096	0.100043999962509
58925	100	68	stimuli\animals2\whale\animal_whale07.jpg        	1	1	1	animal_whale07.jpg   	animals2 	1	whale     	39	whale07     	396	alive    	1	moves	1	natural 	1	n	0	1    	f	0.24215559987351298	1	309.69136499986	309.791223999811	0.0998589999508112
59075	100	69	stimuli\plant2\palmtree\plant_palmtree06.jpg     	1	1	1	plant_palmtree06.jpg 	plant2   	7	palmtree  	27	palmtree06  	275	alive    	1	still	0	natural 	1	n	0	0    	 	0.0	0	309.841311099939	309.941217700019	0.0999066000804305
59225	100	70	stimuli\animals\horse\animal_horse03.jpg         	1	1	1	animal_horse03.jpg   	animals  	0	horse     	20	horse03     	202	alive    	1	moves	1	natural 	1	n	0	0    	 	0.0	0	309.99130439991103	310.091208499856	0.0999040999449789
59375	100	71	stimuli\nonmovArt\clothespeg\nma_clothespeg10.jpg	1	1	1	nma_clothespeg10.jpg 	nonmovArt	4	clothespeg	8	clothespeg10	89	not_alive	0	still	0	artefact	0	n	0	0    	 	0.0	0	310.141300600022	310.241196499905	0.0998958998825401
59525	100	72	stimuli\animals2\pigeon\animal_pigeon06.jpg      	1	1	1	animal_pigeon06.jpg  	animals2 	1	pigeon    	28	pigeon06    	285	alive    	1	moves	1	natural 	1	n	0	0    	 	0.0	0	310.291296100011	310.391199299833	0.0999031998217106
59675	100	73	stimuli\nonmovNat\crystal\nmn_crystal02.jpg      	1	1	1	nmn_crystal02.jpg    	nonmovNat	5	crystal   	10	crystal02   	101	not_alive	0	still	0	natural 	1	n	0	0    	 	0.0	0	310.441289799986	310.541202199878	0.0999123998917639
59825	100	74	stimuli\movArt\helicopter\ma_helicopter02.jpg    	1	1	1	ma_helicopter02.jpg  	movArt   	2	helicopter	19	helicopter02	191	not_alive	0	moves	1	artefact	0	n	0	0    	 	0.0	0	310.59130649990396	310.691203899914	0.0998974000103771
59975	100	75	stimuli\animals\dog\animal_dog02.jpg             	1	1	1	animal_dog02.jpg     	animals  	0	dog       	11	dog02       	111	alive    	1	moves	1	natural 	1	n	0	0    	 	0.0	0	310.741305399919	310.841210999992	0.099905600072816
60125	100	76	stimuli\plant\grass\plant_grass03.jpg            	1	1	1	plant_grass03.jpg    	plant    	6	grass     	17	grass03     	172	alive    	1	still	0	natural 	1	n	0	0    	 	0.0	0	310.891293199966	310.99122089985804	0.0999276998918503
60275	100	77	stimuli\nonmovNat\sand\nmn_sand04.jpg            	1	1	1	nmn_sand04.jpg       	nonmovNat	5	sand      	31	sand04      	313	not_alive	0	still	0	natural 	1	n	0	0    	 	0.0	0	311.041299099801	311.141225100029	0.0999260002281516
60425	100	78	stimuli\plant\vine\plant_vine08.jpg              	1	1	1	plant_vine08.jpg     	plant    	6	vine      	36	vine08      	367	alive    	1	still	0	natural 	1	n	0	0    	 	0.0	0	311.191311199916	311.291333699832	0.10002249991521198
60575	100	79	stimuli\plant2\clover\plant_clover10.jpg         	1	1	1	plant_clover10.jpg   	plant2   	7	clover    	9	clover10    	99	alive    	1	still	0	natural 	1	n	0	0    	 	0.0	0	311.341487600002	311.44132420001597	0.0998366000130772
65374	100	80	stimuli\nonmovNat\shell\nmn_shell02.jpg          	1	2	1	nmn_shell02.jpg      	nonmovNat	5	shell     	32	shell02     	321	not_alive	0	still	0	natural 	1	n	0	0    	 	0.0	0	316.14036979991903	316.240360299824	0.0999904999043792
65524	100	81	stimuli\movNat\waterfall\mn_waterfall03.jpg      	1	2	1	mn_waterfall03.jpg   	movNat   	3	waterfall 	37	waterfall03 	372	not_alive	0	moves	1	natural 	1	n	0	0    	 	0.0	0	316.290395299904	316.39037989988	0.099984599975869
65674	100	82	stimuli\movArt\train\ma_train02.jpg              	1	2	1	ma_train02.jpg       	movArt   	2	train     	34	train02     	341	not_alive	0	moves	1	artefact	0	n	0	0    	 	0.0	0	316.440366299823	316.540352999931	0.0999867001082748
65824	100	83	stimuli\movNat\hotspring\mn_hotspring03.jpg      	1	2	1	mn_hotspring03.jpg   	movNat   	3	hotspring 	21	hotspring03 	212	not_alive	0	moves	1	natural 	1	n	0	0    	 	0.0	0	316.59036329994	316.690350499935	0.0999871999956667
65974	100	84	stimuli\movNat\river\mn_river10.jpg              	1	2	1	mn_river10.jpg       	movNat   	3	river     	29	river10     	299	not_alive	0	moves	1	natural 	1	n	0	0    	 	0.0	0	316.740360999946	316.84034949983504	0.0999884998891502
66124	100	85	stimuli\animals\dog\animal_dog10.jpg             	1	2	1	animal_dog10.jpg     	animals  	0	dog       	11	dog10       	119	alive    	1	moves	1	natural 	1	n	0	0    	 	0.0	0	316.89035809994704	316.990346399834	0.0999882998876273
66274	100	86	stimuli\animals\dolphin\animal_dolphin06.jpg     	1	2	1	animal_dolphin06.jpg 	animals  	0	dolphin   	12	dolphin06   	125	alive    	1	moves	1	natural 	1	n	0	0    	 	0.0	0	317.040356499841	317.140347099863	0.099990600021556
66424	100	87	stimuli\nonmovNat\crystal\nmn_crystal05.jpg      	1	2	1	nmn_crystal05.jpg    	nonmovNat	5	crystal   	10	crystal05   	104	not_alive	0	still	0	natural 	1	n	0	0    	 	0.0	0	317.190354299964	317.290346499998	0.0999922000337392
66574	100	88	stimuli\animals2\bee\animal_bee09.jpg            	1	2	1	animal_bee09.jpg     	animals2 	1	bee       	0	bee09       	8	alive    	1	moves	1	natural 	1	n	0	0    	 	0.0	0	317.340356000001	317.440344899893	0.099988899892196
66724	100	89	stimuli\movArt\helicopter\ma_helicopter09.jpg    	1	2	1	ma_helicopter09.jpg  	movArt   	2	helicopter	19	helicopter09	198	not_alive	0	moves	1	artefact	0	n	0	0    	 	0.0	0	317.490354599897	317.59034310001897	0.0999885001219809
66874	100	90	stimuli\nonmovNat\shell\nmn_shell05.jpg          	1	2	1	nmn_shell05.jpg      	nonmovNat	5	shell     	32	shell05     	324	not_alive	0	still	0	natural 	1	n	0	0    	 	0.0	0	317.640350899892	317.740339299897	0.0999884000048041
67024	100	91	stimuli\plant2\lemontree\plant_lemontree10.jpg   	1	2	1	plant_lemontree10.jpg	plant2   	7	lemontree 	22	lemontree10 	229	alive    	1	still	0	natural 	1	n	0	0    	 	0.0	0	317.790350799914	317.890343099832	0.0999922999180853
67174	100	92	stimuli\movNat\waterfall\mn_waterfall01.jpg      	1	2	1	mn_waterfall01.jpg   	movNat   	3	waterfall 	37	waterfall01 	370	not_alive	0	moves	1	natural 	1	n	0	0    	 	0.0	0	317.94035069993697	318.040348399896	0.0999976999592036
67324	100	93	stimuli\plant\tree\plant_tree05.jpg              	1	2	1	plant_tree05.jpg     	plant    	6	tree      	35	tree05      	354	alive    	1	still	0	natural 	1	n	0	0    	 	0.0	0	318.090364899952	318.190339199966	0.0999743000138551
67474	100	94	stimuli\plant2\clover\plant_clover06.jpg         	1	2	1	plant_clover06.jpg   	plant2   	7	clover    	9	clover06    	95	alive    	1	still	0	natural 	1	n	0	0    	 	0.0	0	318.240344699938	318.340333099943	0.0999884000048041
67624	100	95	stimuli\nonmovArt\headphones\nma_headphones02.jpg	1	2	1	nma_headphones02.jpg 	nonmovArt	4	headphones	18	headphones02	181	not_alive	0	still	0	artefact	0	n	0	0    	 	0.0	0	318.390346599976	318.490333399968	0.0999867999926209
67774	100	96	stimuli\plant2\moss\plant_moss01.jpg             	1	2	1	plant_moss01.jpg     	plant2   	7	moss      	25	moss01      	250	alive    	1	still	0	natural 	1	n	1	0    	 	0.0	0	318.540345699992	318.640331199858	0.0999854998663067
67924	100	97	stimuli\nonmovArt\mug\nma_mug01.jpg              	1	2	1	nma_mug01.jpg        	nonmovArt	4	mug       	26	mug01       	260	not_alive	0	still	0	artefact	0	n	0	0    	 	0.0	0	318.690340699861	318.79033229989	0.0999916000291705
68074	100	98	stimuli\plant2\fern\plant_fern01.jpg             	1	2	1	plant_fern01.jpg     	plant2   	7	fern      	14	fern01      	140	alive    	1	still	0	natural 	1	n	0	1    	f	0.39197739982046204	1	318.84033989999404	318.94032799987997	0.0999880998861044
68224	100	99	stimuli\plant\grass\plant_grass06.jpg            	1	2	1	plant_grass06.jpg    	plant    	6	grass     	17	grass06     	175	alive    	1	still	0	natural 	1	n	0	0    	 	0.0	0	318.990336799994	319.090326299891	0.0999894998967647
68374	100	100	stimuli\animals2\tiger\animal_tiger06.jpg        	1	2	1	animal_tiger06.jpg   	animals2 	1	tiger     	33	tiger06     	335	alive    	1	moves	1	natural 	1	n	0	0    	 	0.0	0	319.14033550000704	319.240323500009	0.0999880000017583
68524	100	101	stimuli\movArt\car\ma_car09.jpg                  	1	2	1	ma_car09.jpg         	movArt   	2	car       	5	car09       	58	not_alive	0	moves	1	artefact	0	n	0	0    	 	0.0	0	319.29033639980497	319.39032249990896	0.0999861001037061
68674	100	102	stimuli\movNat\fire\mn_fire10.jpg                	1	2	1	mn_fire10.jpg        	movNat   	3	fire      	15	fire10      	159	not_alive	0	moves	1	natural 	1	n	0	0    	 	0.0	0	319.440334399929	319.540323499823	0.0999890998937189
68824	100	103	stimuli\nonmovNat\sand\nmn_sand04.jpg            	1	2	1	nmn_sand04.jpg       	nonmovNat	5	sand      	31	sand04      	313	not_alive	0	still	0	natural 	1	n	0	0    	 	0.0	0	319.590329499915	319.690320399823	0.099990899907425
68974	100	104	stimuli\plant\cactus\plant_cactus08.jpg          	1	2	1	plant_cactus08.jpg   	plant    	6	cactus    	4	cactus08    	47	alive    	1	still	0	natural 	1	n	0	0    	 	0.0	0	319.74033119995204	319.840327400016	0.0999962000641971
69124	100	105	stimuli\nonmovArt\bench\nma_bench06.jpg          	1	2	1	nma_bench06.jpg      	nonmovArt	4	bench     	1	bench06     	15	not_alive	0	still	0	artefact	0	n	0	0    	 	0.0	0	319.890330899972	319.99033559998503	0.100004700012505
69274	100	106	stimuli\nonmovNat\rock\nmn_rock09.jpg            	1	2	1	nmn_rock09.jpg       	nonmovNat	5	rock      	30	rock09      	308	not_alive	0	still	0	natural 	1	n	0	0    	 	0.0	0	320.040328199975	320.14031609986	0.0999878998845815
69424	100	107	stimuli\plant\grass\plant_grass09.jpg            	1	2	1	plant_grass09.jpg    	plant    	6	grass     	17	grass09     	178	alive    	1	still	0	natural 	1	n	0	0    	 	0.0	0	320.190325999865	320.29031439987006	0.0999884000048041
69574	100	108	stimuli\movArt\train\ma_train01.jpg              	1	2	1	ma_train01.jpg       	movArt   	2	train     	34	train01     	340	not_alive	0	moves	1	artefact	0	n	0	0    	 	0.0	0	320.3403254	320.440314899897	0.0999894998967647
69724	100	109	stimuli\movArt\bus\ma_bus10.jpg                  	1	2	1	ma_bus10.jpg         	movArt   	2	bus       	3	bus10       	39	not_alive	0	moves	1	artefact	0	n	0	0    	 	0.0	0	320.490322999889	320.590313300025	0.099990300135687
69874	100	110	stimuli\plant2\palmtree\plant_palmtree03.jpg     	1	2	1	plant_palmtree03.jpg 	plant2   	7	palmtree  	27	palmtree03  	272	alive    	1	still	0	natural 	1	n	0	0    	 	0.0	0	320.640317899873	320.74031049991004	0.099992600036785
70024	100	111	stimuli\nonmovNat\crystal\nmn_crystal09.jpg      	1	2	1	nmn_crystal09.jpg    	nonmovNat	5	crystal   	10	crystal09   	108	not_alive	0	still	0	natural 	1	n	0	0    	 	0.0	0	320.79032199992804	320.890308199916	0.0999861999880522
70174	100	112	stimuli\movNat\fire\mn_fire09.jpg                	1	2	1	mn_fire09.jpg        	movNat   	3	fire      	15	fire09      	158	not_alive	0	moves	1	natural 	1	n	0	0    	 	0.0	0	320.940317099914	321.040306999814	0.0999898998998105
70324	100	113	stimuli\plant\vine\plant_vine09.jpg              	1	2	1	plant_vine09.jpg     	plant    	6	vine      	36	vine09      	368	alive    	1	still	0	natural 	1	n	0	0    	 	0.0	0	321.090321899857	321.19030619994703	0.09998430008999999
70474	100	114	stimuli\animals2\bee\animal_bee02.jpg            	1	2	1	animal_bee02.jpg     	animals2 	1	bee       	0	bee02       	1	alive    	1	moves	1	natural 	1	n	0	0    	 	0.0	0	321.240315999836	321.340306599857	0.099990600021556
70624	100	115	stimuli\animals2\whale\animal_whale08.jpg        	1	2	1	animal_whale08.jpg   	animals2 	1	whale     	39	whale08     	397	alive    	1	moves	1	natural 	1	n	0	0    	 	0.0	0	321.390312799951	321.49030359997397	0.0999908000230789
70774	100	116	stimuli\movArt\boat\ma_boat08.jpg                	1	2	1	ma_boat08.jpg        	movArt   	2	boat      	2	boat08      	27	not_alive	0	moves	1	artefact	0	n	0	0    	 	0.0	0	321.540313599864	321.640323799802	0.10001019993796902
70924	100	117	stimuli\movArt\boat\ma_boat08.jpg                	1	2	1	ma_boat08.jpg        	movArt   	2	boat      	2	boat08      	27	not_alive	0	moves	1	artefact	0	n	1	0    	 	0.0	0	321.690311499871	321.790297599975	0.0999861001037061
71074	100	118	stimuli\nonmovNat\shell\nmn_shell09.jpg          	1	2	1	nmn_shell09.jpg      	nonmovNat	5	shell     	32	shell09     	328	not_alive	0	still	0	natural 	1	n	0	1    	f	0.250178100075573	1	321.84030779986597	321.940297900001	0.0999901001341641
71224	100	119	stimuli\plant2\lemontree\plant_lemontree07.jpg   	1	2	1	plant_lemontree07.jpg	plant2   	7	lemontree 	22	lemontree07 	226	alive    	1	still	0	natural 	1	n	0	0    	 	0.0	0	321.99031080002896	322.090296000009	0.0999851999804377
71374	100	120	stimuli\animals\cat\animal_cat06.jpg             	1	2	1	animal_cat06.jpg     	animals  	0	cat       	6	cat06       	65	alive    	1	moves	1	natural 	1	n	0	0    	 	0.0	0	322.140304999892	322.240294399904	0.0999894000124186
71524	100	121	stimuli\nonmovNat\cliff\nmn_cliff05.jpg          	1	2	1	nmn_cliff05.jpg      	nonmovNat	5	cliff     	7	cliff05     	74	not_alive	0	still	0	natural 	1	n	0	0    	 	0.0	0	322.29030480002996	322.39029439981095	0.0999895997811108
71674	100	122	stimuli\animals2\bee\animal_bee01.jpg            	1	2	1	animal_bee01.jpg     	animals2 	1	bee       	0	bee01       	0	alive    	1	moves	1	natural 	1	n	0	0    	 	0.0	0	322.44030609982997	322.540290999925	0.0999849000945687
71824	100	123	stimuli\nonmovArt\mug\nma_mug03.jpg              	1	2	1	nma_mug03.jpg        	nonmovArt	4	mug       	26	mug03       	262	not_alive	0	still	0	artefact	0	n	0	0    	 	0.0	0	322.590303399833	322.690292799845	0.0999894000124186
71974	100	124	stimuli\movNat\fire\mn_fire06.jpg                	1	2	1	mn_fire06.jpg        	movNat   	3	fire      	15	fire06      	155	not_alive	0	moves	1	natural 	1	n	0	0    	 	0.0	0	322.74029989983	322.84030299983	0.10000310000032199
72124	100	125	stimuli\animals2\lemur\animal_lemur05.jpg        	1	2	1	animal_lemur05.jpg   	animals2 	1	lemur     	23	lemur05     	234	alive    	1	moves	1	natural 	1	n	0	0    	 	0.0	0	322.890299099963	322.99028509995	0.0999859999865293
72274	100	126	stimuli\nonmovNat\shell\nmn_shell01.jpg          	1	2	1	nmn_shell01.jpg      	nonmovNat	5	shell     	32	shell01     	320	not_alive	0	still	0	natural 	1	n	0	0    	 	0.0	0	323.040297699859	323.140286299866	0.09998860000632699
72424	100	127	stimuli\nonmovNat\crystal\nmn_crystal09.jpg      	1	2	1	nmn_crystal09.jpg    	nonmovNat	5	crystal   	10	crystal09   	108	not_alive	0	still	0	natural 	1	n	0	0    	 	0.0	0	323.190292199841	323.290285799885	0.0999936000443995
72574	100	128	stimuli\plant2\moss\plant_moss08.jpg             	1	2	1	plant_moss08.jpg     	plant2   	7	moss      	25	moss08      	257	alive    	1	still	0	natural 	1	n	0	0    	 	0.0	0	323.340294199996	323.440288899932	0.0999946999363601
72724	100	129	stimuli\animals\cat\animal_cat04.jpg             	1	2	1	animal_cat04.jpg     	animals  	0	cat       	6	cat04       	63	alive    	1	moves	1	natural 	1	n	0	0    	 	0.0	0	323.49033159995497	323.590279799886	0.0999481999315321
72874	100	130	stimuli\movNat\fire\mn_fire09.jpg                	1	2	1	mn_fire09.jpg        	movNat   	3	fire      	15	fire09      	158	not_alive	0	moves	1	natural 	1	n	0	0    	 	0.0	0	323.64029020001203	323.740278400015	0.0999882000032812
73024	100	131	stimuli\movArt\boat\ma_boat07.jpg                	1	2	1	ma_boat07.jpg        	movArt   	2	boat      	2	boat07      	26	not_alive	0	moves	1	artefact	0	n	0	0    	 	0.0	0	323.79028890002496	323.890276399907	0.0999874998815357
73174	100	132	stimuli\plant2\palmtree\plant_palmtree04.jpg     	1	2	1	plant_palmtree04.jpg 	plant2   	7	palmtree  	27	palmtree04  	273	alive    	1	still	0	natural 	1	n	0	0    	 	0.0	0	323.940285800025	324.040275699925	0.0999898998998105
73324	100	133	stimuli\plant\flower\plant_flower02.jpg          	1	2	1	plant_flower02.jpg   	plant    	6	flower    	16	flower02    	161	alive    	1	still	0	natural 	1	n	0	0    	 	0.0	0	324.090284799924	324.19027499994303	0.0999902000185102
73474	100	134	stimuli\plant\tree\plant_tree08.jpg              	1	2	1	plant_tree08.jpg     	plant    	6	tree      	35	tree08      	357	alive    	1	still	0	natural 	1	n	0	0    	 	0.0	0	324.240284399828	324.340272299945	0.0999879001174122
73624	100	135	stimuli\movNat\river\mn_river08.jpg              	1	2	1	mn_river08.jpg       	movNat   	3	river     	29	river08     	297	not_alive	0	moves	1	natural 	1	n	0	0    	 	0.0	0	324.390281899832	324.490270299837	0.0999884000048041
73774	100	136	stimuli\plant2\fern\plant_fern02.jpg             	1	2	1	plant_fern02.jpg     	plant2   	7	fern      	14	fern02      	141	alive    	1	still	0	natural 	1	n	0	0    	 	0.0	0	324.540246699937	324.640237799846	0.0999910999089479
73924	100	137	stimuli\plant\tree\plant_tree03.jpg              	1	2	1	plant_tree03.jpg     	plant    	6	tree      	35	tree03      	352	alive    	1	still	0	natural 	1	n	0	0    	 	0.0	0	324.690283600008	324.790266799973	0.0999831999652087
74074	100	138	stimuli\movArt\boat\ma_boat06.jpg                	1	2	1	ma_boat06.jpg        	movArt   	2	boat      	2	boat06      	25	not_alive	0	moves	1	artefact	0	n	0	0    	 	0.0	0	324.84027639986	324.94026619987596	0.0999898000154644
74224	100	139	stimuli\nonmovArt\headphones\nma_headphones04.jpg	1	2	1	nma_headphones04.jpg 	nonmovArt	4	headphones	18	headphones04	183	not_alive	0	still	0	artefact	0	n	0	0    	 	0.0	0	324.990281299921	325.090266400017	0.0999851000960916
74374	100	140	stimuli\animals\eagle\animal_eagle03.jpg         	1	2	1	animal_eagle03.jpg   	animals  	0	eagle     	13	eagle03     	132	alive    	1	moves	1	natural 	1	n	1	0    	 	0.0	0	325.14028599998	325.240279099904	0.0999930999241769
74524	100	141	stimuli\animals\horse\animal_horse03.jpg         	1	2	1	animal_horse03.jpg   	animals  	0	horse     	20	horse03     	202	alive    	1	moves	1	natural 	1	n	0	1    	f	0.250566799892113	1	325.290319799911	325.390282499837	0.0999626999255269
74674	100	142	stimuli\animals2\lemur\animal_lemur03.jpg        	1	2	1	animal_lemur03.jpg   	animals2 	1	lemur     	23	lemur03     	232	alive    	1	moves	1	natural 	1	n	0	0    	 	0.0	0	325.44027539994596	325.540267699864	0.0999922999180853
74824	100	143	stimuli\movNat\fire\mn_fire10.jpg                	1	2	1	mn_fire10.jpg        	movNat   	3	fire      	15	fire10      	159	not_alive	0	moves	1	natural 	1	n	0	0    	 	0.0	0	325.59027659986197	325.690258199815	0.0999815999530255
74974	100	144	stimuli\movNat\hotspring\mn_hotspring09.jpg      	1	2	1	mn_hotspring09.jpg   	movNat   	3	hotspring 	21	hotspring09 	218	not_alive	0	moves	1	natural 	1	n	0	0    	 	0.0	0	325.740273499861	325.840254599927	0.0999811000656336
75124	100	145	stimuli\nonmovArt\lock\nma_lock10.jpg            	1	2	1	nma_lock10.jpg       	nonmovArt	4	lock      	24	lock10      	249	not_alive	0	still	0	artefact	0	n	0	0    	 	0.0	0	325.89026699983503	325.99025539983995	0.0999884000048041
75274	100	146	stimuli\movNat\hotspring\mn_hotspring01.jpg      	1	2	1	mn_hotspring01.jpg   	movNat   	3	hotspring 	21	hotspring01 	210	not_alive	0	moves	1	natural 	1	n	0	0    	 	0.0	0	326.04027009988204	326.140257399995	0.0999873001128435
75424	100	147	stimuli\movNat\waterfall\mn_waterfall07.jpg      	1	2	1	mn_waterfall07.jpg   	movNat   	3	waterfall 	37	waterfall07 	376	not_alive	0	moves	1	natural 	1	n	0	0    	 	0.0	0	326.19026679987996	326.290254999883	0.0999882000032812
75574	100	148	stimuli\animals2\pigeon\animal_pigeon03.jpg      	1	2	1	animal_pigeon03.jpg  	animals2 	1	pigeon    	28	pigeon03    	282	alive    	1	moves	1	natural 	1	n	0	0    	 	0.0	0	326.340275699971	326.440249099862	0.0999733998905867
75724	100	149	stimuli\plant\grass\plant_grass06.jpg            	1	2	1	plant_grass06.jpg    	plant    	6	grass     	17	grass06     	175	alive    	1	still	0	natural 	1	n	0	0    	 	0.0	0	326.490256099962	326.590249300003	0.0999932000413537
75875	100	150	stimuli\movArt\car\ma_car09.jpg                  	1	2	1	ma_car09.jpg         	movArt   	2	car       	5	car09       	58	not_alive	0	moves	1	artefact	0	n	0	0    	 	0.0	0	326.64108449989	326.741075299913	0.0999908000230789
76025	100	151	stimuli\animals2\whale\animal_whale09.jpg        	1	2	1	animal_whale09.jpg   	animals2 	1	whale     	39	whale09     	398	alive    	1	moves	1	natural 	1	n	0	0    	 	0.0	0	326.79115840001	326.891066399869	0.0999079998582601
76175	100	152	stimuli\nonmovNat\crystal\nmn_crystal03.jpg      	1	2	1	nmn_crystal03.jpg    	nonmovNat	5	crystal   	10	crystal03   	102	not_alive	0	still	0	natural 	1	n	0	0    	 	0.0	0	326.94116709986696	327.04114169999997	0.0999746001325547
76325	100	153	stimuli\animals\dog\animal_dog06.jpg             	1	2	1	animal_dog06.jpg     	animals  	0	dog       	11	dog06       	115	alive    	1	moves	1	natural 	1	n	0	0    	 	0.0	0	327.091197300004	327.19106129999295	0.0998639999888837
76475	100	154	stimuli\nonmovNat\cliff\nmn_cliff03.jpg          	1	2	1	nmn_cliff03.jpg      	nonmovNat	5	cliff     	7	cliff03     	72	not_alive	0	still	0	natural 	1	n	0	0    	 	0.0	0	327.241134899901	327.341071599862	0.0999366999603808
76625	100	155	stimuli\plant2\moss\plant_moss06.jpg             	1	2	1	plant_moss06.jpg     	plant2   	7	moss      	25	moss06      	255	alive    	1	still	0	natural 	1	n	0	0    	 	0.0	0	327.391128199873	327.49102959991404	0.0999014000408351
76775	100	156	stimuli\animals\dolphin\animal_dolphin05.jpg     	1	2	1	animal_dolphin05.jpg 	animals  	0	dolphin   	12	dolphin05   	124	alive    	1	moves	1	natural 	1	n	0	0    	 	0.0	0	327.54112009983504	327.64105089986697	0.0999308000318706
76925	100	157	stimuli\animals2\whale\animal_whale07.jpg        	1	2	1	animal_whale07.jpg   	animals2 	1	whale     	39	whale07     	396	alive    	1	moves	1	natural 	1	n	0	0    	 	0.0	0	327.691170899896	327.791026699822	0.0998557999264448
77075	100	158	stimuli\movArt\bus\ma_bus08.jpg                  	1	2	1	ma_bus08.jpg         	movArt   	2	bus       	3	bus08       	37	not_alive	0	moves	1	artefact	0	n	0	0    	 	0.0	0	327.841155899921	327.941020099912	0.0998641999904066
77225	100	159	stimuli\animals\dog\animal_dog06.jpg             	1	2	1	animal_dog06.jpg     	animals  	0	dog       	11	dog06       	115	alive    	1	moves	1	natural 	1	n	0	0    	 	0.0	0	327.99114389997004	328.091029899893	0.0998859999235719
80342	100	160	stimuli\animals\dolphin\animal_dolphin02.jpg     	1	3	1	animal_dolphin02.jpg 	animals  	0	dolphin   	12	dolphin02   	121	alive    	1	moves	1	natural 	1	n	0	0    	 	0.0	0	331.107810399961	331.207650199998	0.0998398000374436
80492	100	161	stimuli\nonmovNat\sand\nmn_sand01.jpg            	1	3	1	nmn_sand01.jpg       	nonmovNat	5	sand      	31	sand01      	310	not_alive	0	still	0	natural 	1	n	0	0    	 	0.0	0	331.25773319997796	331.357644599862	0.0999113998841494
80642	100	162	stimuli\animals\horse\animal_horse09.jpg         	1	3	1	animal_horse09.jpg   	animals  	0	horse     	20	horse09     	208	alive    	1	moves	1	natural 	1	n	0	0    	 	0.0	0	331.407765199896	331.507652999833	0.09988779993727802
80792	100	163	stimuli\movNat\hotspring\mn_hotspring09.jpg      	1	3	1	mn_hotspring09.jpg   	movNat   	3	hotspring 	21	hotspring09 	218	not_alive	0	moves	1	natural 	1	n	0	0    	 	0.0	0	331.557727399981	331.657625399996	0.0998980000149458
80942	100	164	stimuli\animals2\bee\animal_bee07.jpg            	1	3	1	animal_bee07.jpg     	animals2 	1	bee       	0	bee07       	6	alive    	1	moves	1	natural 	1	n	0	0    	 	0.0	0	331.707759999903	331.807646299945	0.0998863000422716
81092	100	165	stimuli\plant2\fern\plant_fern04.jpg             	1	3	1	plant_fern04.jpg     	plant2   	7	fern      	14	fern04      	143	alive    	1	still	0	natural 	1	n	0	0    	 	0.0	0	331.857708299998	331.95762469992	0.0999163999222219
81242	100	166	stimuli\plant\cactus\plant_cactus07.jpg          	1	3	1	plant_cactus07.jpg   	plant    	6	cactus    	4	cactus07    	46	alive    	1	still	0	natural 	1	n	0	0    	 	0.0	0	332.007747499971	332.10765689984	0.0999093998689204
81392	100	167	stimuli\movArt\car\ma_car02.jpg                  	1	3	1	ma_car02.jpg         	movArt   	2	car       	5	car02       	51	not_alive	0	moves	1	artefact	0	n	0	0    	 	0.0	0	332.157732999884	332.257614699891	0.0998817000072449
81542	100	168	stimuli\plant\cactus\plant_cactus08.jpg          	1	3	1	plant_cactus08.jpg   	plant    	6	cactus    	4	cactus08    	47	alive    	1	still	0	natural 	1	n	0	0    	 	0.0	0	332.307772299973	332.40766459982797	0.0998922998551279
81692	100	169	stimuli\plant\vine\plant_vine03.jpg              	1	3	1	plant_vine03.jpg     	plant    	6	vine      	36	vine03      	362	alive    	1	still	0	natural 	1	n	0	0    	 	0.0	0	332.457716499921	332.557620399864	0.099903899943456
81842	100	170	stimuli\nonmovNat\crystal\nmn_crystal05.jpg      	1	3	1	nmn_crystal05.jpg    	nonmovNat	5	crystal   	10	crystal05   	104	not_alive	0	still	0	natural 	1	n	0	0    	 	0.0	0	332.607744799927	332.707652099896	0.0999072999693453
81992	100	171	stimuli\animals\dog\animal_dog08.jpg             	1	3	1	animal_dog08.jpg     	animals  	0	dog       	11	dog08       	117	alive    	1	moves	1	natural 	1	n	0	0    	 	0.0	0	332.757713499945	332.857608699938	0.0998951999936252
82142	100	172	stimuli\plant\flower\plant_flower10.jpg          	1	3	1	plant_flower10.jpg   	plant    	6	flower    	16	flower10    	169	alive    	1	still	0	natural 	1	n	0	0    	 	0.0	0	332.907732899999	333.007664899807	0.0999319998081773
82292	100	173	stimuli\nonmovArt\lock\nma_lock08.jpg            	1	3	1	nma_lock08.jpg       	nonmovArt	4	lock      	24	lock08      	247	not_alive	0	still	0	artefact	0	n	0	0    	 	0.0	0	333.057721299818	333.157624299871	0.0999030000530183
82442	100	174	stimuli\movArt\train\ma_train07.jpg              	1	3	1	ma_train07.jpg       	movArt   	2	train     	34	train07     	346	not_alive	0	moves	1	artefact	0	n	0	0    	 	0.0	0	333.20773509982996	333.307650999865	0.0999159000348299
82592	100	175	stimuli\nonmovNat\sand\nmn_sand03.jpg            	1	3	1	nmn_sand03.jpg       	nonmovNat	5	sand      	31	sand03      	312	not_alive	0	still	0	natural 	1	n	0	0    	 	0.0	0	333.357713699807	333.457605700009	0.0998920002020895
82742	100	176	stimuli\nonmovArt\headphones\nma_headphones04.jpg	1	3	1	nma_headphones04.jpg 	nonmovArt	4	headphones	18	headphones04	183	not_alive	0	still	0	artefact	0	n	0	0    	 	0.0	0	333.507728299824	333.607644199859	0.0999159000348299
82892	100	177	stimuli\movArt\train\ma_train10.jpg              	1	3	1	ma_train10.jpg       	movArt   	2	train     	34	train10     	349	not_alive	0	moves	1	artefact	0	n	0	0    	 	0.0	0	333.657682599966	333.757607599953	0.0999249999877065
83042	100	178	stimuli\plant2\lemontree\plant_lemontree05.jpg   	1	3	1	plant_lemontree05.jpg	plant2   	7	lemontree 	22	lemontree05 	224	alive    	1	still	0	natural 	1	n	0	0    	 	0.0	0	333.807743299985	333.90762129984796	0.099877999862656
83192	100	179	stimuli\movNat\waves\mn_waves09.jpg              	1	3	1	mn_waves09.jpg       	movNat   	3	waves     	38	waves09     	388	not_alive	0	moves	1	natural 	1	n	0	0    	 	0.0	0	333.957722099964	334.057594900019	0.0998728000558912
83342	100	180	stimuli\animals\eagle\animal_eagle01.jpg         	1	3	1	animal_eagle01.jpg   	animals  	0	eagle     	13	eagle01     	130	alive    	1	moves	1	natural 	1	n	0	0    	 	0.0	0	334.107749099843	334.207792499801	0.10004339995794
83492	100	181	stimuli\plant\grass\plant_grass01.jpg            	1	3	1	plant_grass01.jpg    	plant    	6	grass     	17	grass01     	170	alive    	1	still	0	natural 	1	n	0	0    	 	0.0	0	334.257697999943	334.35760369990004	0.0999056999571621
83642	100	182	stimuli\nonmovArt\mug\nma_mug07.jpg              	1	3	1	nma_mug07.jpg        	nonmovArt	4	mug       	26	mug07       	266	not_alive	0	still	0	artefact	0	n	0	0    	 	0.0	0	334.407727499958	334.507632599911	0.0999050999525934
83792	100	183	stimuli\movNat\river\mn_river08.jpg              	1	3	1	mn_river08.jpg       	movNat   	3	river     	29	river08     	297	not_alive	0	moves	1	natural 	1	n	0	0    	 	0.0	0	334.557702600025	334.65760099981003	0.099898399785161
83942	100	184	stimuli\plant\tree\plant_tree02.jpg              	1	3	1	plant_tree02.jpg     	plant    	6	tree      	35	tree02      	351	alive    	1	still	0	natural 	1	n	0	0    	 	0.0	0	334.707712499891	334.807615699945	0.0999032000545412
84092	100	185	stimuli\nonmovArt\clothespeg\nma_clothespeg04.jpg	1	3	1	nma_clothespeg04.jpg 	nonmovArt	4	clothespeg	8	clothespeg04	83	not_alive	0	still	0	artefact	0	n	0	0    	 	0.0	0	334.857686399948	334.957591600018	0.0999052000697702
84242	100	186	stimuli\plant2\moss\plant_moss05.jpg             	1	3	1	plant_moss05.jpg     	plant2   	7	moss      	25	moss05      	254	alive    	1	still	0	natural 	1	n	0	0    	 	0.0	0	335.007726099808	335.107625399949	0.09989930014125999
84392	100	187	stimuli\animals2\whale\animal_whale01.jpg        	1	3	1	animal_whale01.jpg   	animals2 	1	whale     	39	whale01     	390	alive    	1	moves	1	natural 	1	n	0	0    	 	0.0	0	335.157691000029	335.257589099929	0.09989809989929199
84542	100	188	stimuli\nonmovArt\bench\nma_bench07.jpg          	1	3	1	nma_bench07.jpg      	nonmovArt	4	bench     	1	bench07     	16	not_alive	0	still	0	artefact	0	n	0	0    	 	0.0	0	335.307711799862	335.40761649981096	0.0999046999495476
84692	100	189	stimuli\nonmovNat\rock\nmn_rock07.jpg            	1	3	1	nmn_rock07.jpg       	nonmovNat	5	rock      	30	rock07      	306	not_alive	0	still	0	natural 	1	n	0	0    	 	0.0	0	335.45768709992996	335.557583199814	0.099896099884063
84842	100	190	stimuli\plant\vine\plant_vine03.jpg              	1	3	1	plant_vine03.jpg     	plant    	6	vine      	36	vine03      	362	alive    	1	still	0	natural 	1	n	0	0    	 	0.0	0	335.607709799893	335.70761589985295	0.0999060999602079
84992	100	191	stimuli\nonmovArt\lock\nma_lock10.jpg            	1	3	1	nma_lock10.jpg       	nonmovArt	4	lock      	24	lock10      	249	not_alive	0	still	0	artefact	0	n	0	0    	 	0.0	0	335.757677400019	335.857592699816	0.0999152997974306
85142	100	192	stimuli\animals2\pigeon\animal_pigeon04.jpg      	1	3	1	animal_pigeon04.jpg  	animals2 	1	pigeon    	28	pigeon04    	283	alive    	1	moves	1	natural 	1	n	0	0    	 	0.0	0	335.90777319995703	336.007605399936	0.0998321999795734
85292	100	193	stimuli\nonmovArt\mug\nma_mug05.jpg              	1	3	1	nma_mug05.jpg        	nonmovArt	4	mug       	26	mug05       	264	not_alive	0	still	0	artefact	0	n	0	0    	 	0.0	0	336.057689299807	336.157569799805	0.0998804999981075
85442	100	194	stimuli\movArt\car\ma_car06.jpg                  	1	3	1	ma_car06.jpg         	movArt   	2	car       	5	car06       	55	not_alive	0	moves	1	artefact	0	n	0	0    	 	0.0	0	336.207715400029	336.307619899977	0.0999044999480247
85592	100	195	stimuli\movArt\helicopter\ma_helicopter07.jpg    	1	3	1	ma_helicopter07.jpg  	movArt   	2	helicopter	19	helicopter07	196	not_alive	0	moves	1	artefact	0	n	0	0    	 	0.0	0	336.357683399925	336.457575599896	0.0998921999707818
85742	100	196	stimuli\plant2\clover\plant_clover07.jpg         	1	3	1	plant_clover07.jpg   	plant2   	7	clover    	9	clover07    	96	alive    	1	still	0	natural 	1	n	0	0    	 	0.0	0	336.50770769990004	336.607610199833	0.0999024999327957
85892	100	197	stimuli\movNat\waves\mn_waves04.jpg              	1	3	1	mn_waves04.jpg       	movNat   	3	waves     	38	waves04     	383	not_alive	0	moves	1	natural 	1	n	0	0    	 	0.0	0	336.657666299958	336.757582799997	0.0999165000393986
86042	100	198	stimuli\movNat\waves\mn_waves05.jpg              	1	3	1	mn_waves05.jpg       	movNat   	3	waves     	38	waves05     	384	not_alive	0	moves	1	natural 	1	n	0	0    	 	0.0	0	336.80770809995	336.90760689997103	0.0998988000210374
86192	100	199	stimuli\plant2\clover\plant_clover07.jpg         	1	3	1	plant_clover07.jpg   	plant2   	7	clover    	9	clover07    	96	alive    	1	still	0	natural 	1	n	0	0    	 	0.0	0	336.957673499826	337.057579400018	0.0999059001915156
86342	100	200	stimuli\plant2\palmtree\plant_palmtree02.jpg     	1	3	1	plant_palmtree02.jpg 	plant2   	7	palmtree  	27	palmtree02  	271	alive    	1	still	0	natural 	1	n	0	0    	 	0.0	0	337.107695299899	337.207824199926	0.10012890002690303
86492	100	201	stimuli\nonmovNat\rock\nmn_rock08.jpg            	1	3	1	nmn_rock08.jpg       	nonmovNat	5	rock      	30	rock08      	307	not_alive	0	still	0	natural 	1	n	1	0    	 	0.0	0	337.257672999986	337.35756819997897	0.0998951999936252
86642	100	202	stimuli\movArt\helicopter\ma_helicopter10.jpg    	1	3	1	ma_helicopter10.jpg  	movArt   	2	helicopter	19	helicopter10	199	not_alive	0	moves	1	artefact	0	n	0	0    	 	0.0	0	337.407693099929	337.50752300000704	0.0998299000784754
86792	100	203	stimuli\animals2\pigeon\animal_pigeon03.jpg      	1	3	1	animal_pigeon03.jpg  	animals2 	1	pigeon    	28	pigeon03    	282	alive    	1	moves	1	natural 	1	n	0	1    	f	0.391895700013265	1	337.55755909998	337.65744389989396	0.0998847999144345
86942	100	204	stimuli\nonmovNat\shell\nmn_shell03.jpg          	1	3	1	nmn_shell03.jpg      	nonmovNat	5	shell     	32	shell03     	322	not_alive	0	still	0	natural 	1	n	0	0    	 	0.0	0	337.70777300000196	337.807823899901	0.100050899898633
87092	100	205	stimuli\movNat\river\mn_river03.jpg              	1	3	1	mn_river03.jpg       	movNat   	3	river     	29	river03     	292	not_alive	0	moves	1	natural 	1	n	0	0    	 	0.0	0	337.85785089992	337.95760539989	0.0997544999700039
87242	100	206	stimuli\plant\grass\plant_grass07.jpg            	1	3	1	plant_grass07.jpg    	plant    	6	grass     	17	grass07     	176	alive    	1	still	0	natural 	1	n	1	0    	 	0.0	0	338.007679899922	338.107588100014	0.0999082000926137
87392	100	207	stimuli\plant2\clover\plant_clover08.jpg         	1	3	1	plant_clover08.jpg   	plant2   	7	clover    	9	clover08    	97	alive    	1	still	0	natural 	1	n	0	0    	 	0.0	0	338.157669399865	338.257596799871	0.0999274000059813
87542	100	208	stimuli\movNat\waterfall\mn_waterfall06.jpg      	1	3	1	mn_waterfall06.jpg   	movNat   	3	waterfall 	37	waterfall06 	375	not_alive	0	moves	1	natural 	1	n	0	1    	f	0.3919746000319721	1	338.30768169998197	338.40757959987997	0.0998978998977691
87692	100	209	stimuli\animals2\tiger\animal_tiger04.jpg        	1	3	1	animal_tiger04.jpg   	animals2 	1	tiger     	33	tiger04     	333	alive    	1	moves	1	natural 	1	n	0	0    	 	0.0	0	338.457710299874	338.557580800029	0.0998705001547932
87842	100	210	stimuli\animals\cat\animal_cat06.jpg             	1	3	1	animal_cat06.jpg     	animals  	0	cat       	6	cat06       	65	alive    	1	moves	1	natural 	1	n	0	0    	 	0.0	0	338.607681700028	338.707615999971	0.09993429994210601
87992	100	211	stimuli\nonmovNat\rock\nmn_rock02.jpg            	1	3	1	nmn_rock02.jpg       	nonmovNat	5	rock      	30	rock02      	301	not_alive	0	still	0	natural 	1	n	0	0    	 	0.0	0	338.757702499861	338.857574899914	0.0998724000528454
88142	100	212	stimuli\animals\eagle\animal_eagle07.jpg         	1	3	1	animal_eagle07.jpg   	animals  	0	eagle     	13	eagle07     	136	alive    	1	moves	1	natural 	1	n	0	0    	 	0.0	0	338.90770330000703	339.007582099875	0.0998787998687476
88292	100	213	stimuli\animals2\tiger\animal_tiger10.jpg        	1	3	1	animal_tiger10.jpg   	animals2 	1	tiger     	33	tiger10     	339	alive    	1	moves	1	natural 	1	n	0	0    	 	0.0	0	339.057712499984	339.15760349994497	0.0998909999616444
88442	100	214	stimuli\movArt\helicopter\ma_helicopter10.jpg    	1	3	1	ma_helicopter10.jpg  	movArt   	2	helicopter	19	helicopter10	199	not_alive	0	moves	1	artefact	0	n	0	0    	 	0.0	0	339.207694299985	339.30757529987005	0.0998809998854994
88592	100	215	stimuli\movArt\train\ma_train01.jpg              	1	3	1	ma_train01.jpg       	movArt   	2	train     	34	train01     	340	not_alive	0	moves	1	artefact	0	n	0	0    	 	0.0	0	339.357694400009	339.457634499995	0.09994009998627
88742	100	216	stimuli\nonmovArt\bench\nma_bench01.jpg          	1	3	1	nma_bench01.jpg      	nonmovArt	4	bench     	1	bench01     	10	not_alive	0	still	0	artefact	0	n	0	0    	 	0.0	0	339.507759999949	339.607659299858	0.0998992999084293
88892	100	217	stimuli\animals\dolphin\animal_dolphin07.jpg     	1	3	1	animal_dolphin07.jpg 	animals  	0	dolphin   	12	dolphin07   	126	alive    	1	moves	1	natural 	1	n	0	0    	 	0.0	0	339.657704399899	339.757599500008	0.0998951001092791
89042	100	218	stimuli\movArt\bus\ma_bus03.jpg                  	1	3	1	ma_bus03.jpg         	movArt   	2	bus       	3	bus03       	32	not_alive	0	moves	1	artefact	0	n	0	0    	 	0.0	0	339.80767749995	339.90756269986696	0.0998851999174803
89192	100	219	stimuli\plant\cactus\plant_cactus10.jpg          	1	3	1	plant_cactus10.jpg   	plant    	6	cactus    	4	cactus10    	49	alive    	1	still	0	natural 	1	n	0	0    	 	0.0	0	339.957678699866	340.057569899829	0.0998911999631673
89342	100	220	stimuli\nonmovArt\headphones\nma_headphones04.jpg	1	3	1	nma_headphones04.jpg 	nonmovArt	4	headphones	18	headphones04	183	not_alive	0	still	0	artefact	0	n	1	0    	 	0.0	0	340.10767529998	340.207569899969	0.0998945999890566
89492	100	221	stimuli\movArt\boat\ma_boat02.jpg                	1	3	1	ma_boat02.jpg        	movArt   	2	boat      	2	boat02      	21	not_alive	0	moves	1	artefact	0	n	0	0    	 	0.0	0	340.25766839995	340.357578599826	0.09991019987501198
89642	100	222	stimuli\nonmovArt\clothespeg\nma_clothespeg10.jpg	1	3	1	nma_clothespeg10.jpg 	nonmovArt	4	clothespeg	8	clothespeg10	89	not_alive	0	still	0	artefact	0	n	0	1    	f	0.300203499849886	1	340.407674700022	340.507570199901	0.0998954998794943
89792	100	223	stimuli\plant2\lemontree\plant_lemontree07.jpg   	1	3	1	plant_lemontree07.jpg	plant2   	7	lemontree 	22	lemontree07 	226	alive    	1	still	0	natural 	1	n	0	0    	 	0.0	0	340.557672899915	340.65758619992994	0.0999133000150322
89942	100	224	stimuli\nonmovArt\clothespeg\nma_clothespeg02.jpg	1	3	1	nma_clothespeg02.jpg 	nonmovArt	4	clothespeg	8	clothespeg02	81	not_alive	0	still	0	artefact	0	n	0	0    	 	0.0	0	340.70768859982496	340.807550899917	0.0998623000923544
90092	100	225	stimuli\nonmovNat\sand\nmn_sand09.jpg            	1	3	1	nmn_sand09.jpg       	nonmovNat	5	sand      	31	sand09      	318	not_alive	0	still	0	natural 	1	n	0	0    	 	0.0	0	340.857687899843	340.957554399967	0.0998665001243352
90242	100	226	stimuli\nonmovNat\cliff\nmn_cliff10.jpg          	1	3	1	nmn_cliff10.jpg      	nonmovNat	5	cliff     	7	cliff10     	79	not_alive	0	still	0	natural 	1	n	0	0    	 	0.0	0	341.00763419992296	341.10755409998796	0.0999199000652879
90392	100	227	stimuli\movNat\waterfall\mn_waterfall07.jpg      	1	3	1	mn_waterfall07.jpg   	movNat   	3	waterfall 	37	waterfall07 	376	not_alive	0	moves	1	natural 	1	n	0	0    	 	0.0	0	341.157649899833	341.257530399831	0.0998804999981075
90542	100	228	stimuli\animals2\tiger\animal_tiger02.jpg        	1	3	1	animal_tiger02.jpg   	animals2 	1	tiger     	33	tiger02     	331	alive    	1	moves	1	natural 	1	n	0	0    	 	0.0	0	341.307734999806	341.40768269985	0.0999477000441402
90692	100	229	stimuli\nonmovArt\bench\nma_bench09.jpg          	1	3	1	nma_bench09.jpg      	nonmovArt	4	bench     	1	bench09     	18	not_alive	0	still	0	artefact	0	n	0	0    	 	0.0	0	341.457648299867	341.557555299951	0.0999070000834763
90842	100	230	stimuli\nonmovNat\shell\nmn_shell06.jpg          	1	3	1	nmn_shell06.jpg      	nonmovNat	5	shell     	32	shell06     	325	not_alive	0	still	0	natural 	1	n	0	0    	 	0.0	0	341.607665499905	341.707553199958	0.0998877000529319
90992	100	231	stimuli\plant2\lemontree\plant_lemontree01.jpg   	1	3	1	plant_lemontree01.jpg	plant2   	7	lemontree 	22	lemontree01 	220	alive    	1	still	0	natural 	1	n	0	0    	 	0.0	0	341.757675600005	341.857556999894	0.0998813998885452
91142	100	232	stimuli\plant\vine\plant_vine06.jpg              	1	3	1	plant_vine06.jpg     	plant    	6	vine      	36	vine06      	365	alive    	1	still	0	natural 	1	n	0	0    	 	0.0	0	341.90764709981204	342.00756249995896	0.09991540014743801
91292	100	233	stimuli\movArt\bus\ma_bus10.jpg                  	1	3	1	ma_bus10.jpg         	movArt   	2	bus       	3	bus10       	39	not_alive	0	moves	1	artefact	0	n	0	0    	 	0.0	0	342.057648899965	342.15754119982	0.0998922998551279
91442	100	234	stimuli\plant2\fern\plant_fern02.jpg             	1	3	1	plant_fern02.jpg     	plant2   	7	fern      	14	fern02      	141	alive    	1	still	0	natural 	1	n	0	0    	 	0.0	0	342.207668999908	342.307536399923	0.09986740001477301
91592	100	235	stimuli\animals2\lemur\animal_lemur05.jpg        	1	3	1	animal_lemur05.jpg   	animals2 	1	lemur     	23	lemur05     	234	alive    	1	moves	1	natural 	1	n	0	0    	 	0.0	0	342.357665000018	342.457553999964	0.0998889999464154
91742	100	236	stimuli\plant2\palmtree\plant_palmtree02.jpg     	1	3	1	plant_palmtree02.jpg 	plant2   	7	palmtree  	27	palmtree02  	271	alive    	1	still	0	natural 	1	n	0	0    	 	0.0	0	342.50763469981	342.607545499923	0.0999108001124113
91892	100	237	stimuli\plant\flower\plant_flower09.jpg          	1	3	1	plant_flower09.jpg   	plant    	6	flower    	16	flower09    	168	alive    	1	still	0	natural 	1	n	0	0    	 	0.0	0	342.657651799964	342.757524000015	0.0998722000513225
92042	100	238	stimuli\animals\horse\animal_horse07.jpg         	1	3	1	animal_horse07.jpg   	animals  	0	horse     	20	horse07     	206	alive    	1	moves	1	natural 	1	n	0	0    	 	0.0	0	342.807647499954	342.90754689998	0.0998994000256061
92192	100	239	stimuli\animals2\bee\animal_bee06.jpg            	1	3	1	animal_bee06.jpg     	animals2 	1	bee       	0	bee06       	5	alive    	1	moves	1	natural 	1	n	0	0    	 	0.0	0	342.957639599917	343.05755939986597	0.0999197999481111
97175	100	240	stimuli\plant2\lemontree\plant_lemontree06.jpg   	1	4	1	plant_lemontree06.jpg	plant2   	7	lemontree 	22	lemontree06 	225	alive    	1	still	0	natural 	1	n	0	0    	 	0.0	0	347.94094889983495	348.040828199824	0.0998792999889701
97325	100	241	stimuli\plant2\palmtree\plant_palmtree10.jpg     	1	4	1	plant_palmtree10.jpg 	plant2   	7	palmtree  	27	palmtree10  	279	alive    	1	still	0	natural 	1	n	0	0    	 	0.0	0	348.090910499915	348.190812899964	0.0999024000484496
97475	100	242	stimuli\animals2\tiger\animal_tiger02.jpg        	1	4	1	animal_tiger02.jpg   	animals2 	1	tiger     	33	tiger02     	331	alive    	1	moves	1	natural 	1	n	0	0    	 	0.0	0	348.24095649993995	348.340829199878	0.0998726999387145
97625	100	243	stimuli\movArt\helicopter\ma_helicopter05.jpg    	1	4	1	ma_helicopter05.jpg  	movArt   	2	helicopter	19	helicopter05	194	not_alive	0	moves	1	artefact	0	n	0	0    	 	0.0	0	348.39092529984197	348.49081310001196	0.0998878001701086
97775	100	244	stimuli\plant2\fern\plant_fern10.jpg             	1	4	1	plant_fern10.jpg     	plant2   	7	fern      	14	fern10      	149	alive    	1	still	0	natural 	1	n	0	0    	 	0.0	0	348.54091280000296	348.640816599829	0.0999037998262792
97925	100	245	stimuli\plant\grass\plant_grass02.jpg            	1	4	1	plant_grass02.jpg    	plant    	6	grass     	17	grass02     	171	alive    	1	still	0	natural 	1	n	0	0    	 	0.0	0	348.690911199898	348.79080619988997	0.0998949999921023
98075	100	246	stimuli\movArt\helicopter\ma_helicopter06.jpg    	1	4	1	ma_helicopter06.jpg  	movArt   	2	helicopter	19	helicopter06	195	not_alive	0	moves	1	artefact	0	n	0	0    	 	0.0	0	348.84091989998706	348.94081369997	0.09989379998296499
98225	100	247	stimuli\plant2\clover\plant_clover03.jpg         	1	4	1	plant_clover03.jpg   	plant2   	7	clover    	9	clover03    	92	alive    	1	still	0	natural 	1	n	0	0    	 	0.0	0	348.99091969989195	349.09080250002404	0.0998828001320362
98375	100	248	stimuli\movArt\helicopter\ma_helicopter03.jpg    	1	4	1	ma_helicopter03.jpg  	movArt   	2	helicopter	19	helicopter03	192	not_alive	0	moves	1	artefact	0	n	0	0    	 	0.0	0	349.140922299819	349.240793499863	0.09987120004370802
98525	100	249	stimuli\animals\dog\animal_dog07.jpg             	1	4	1	animal_dog07.jpg     	animals  	0	dog       	11	dog07       	116	alive    	1	moves	1	natural 	1	n	0	0    	 	0.0	0	349.290915800026	349.39079390000603	0.0998780999798327
98675	100	250	stimuli\nonmovArt\clothespeg\nma_clothespeg06.jpg	1	4	1	nma_clothespeg06.jpg 	nonmovArt	4	clothespeg	8	clothespeg06	85	not_alive	0	still	0	artefact	0	n	0	0    	 	0.0	0	349.44091330003	349.540806500008	0.0998931999783963
98825	100	251	stimuli\animals\dog\animal_dog08.jpg             	1	4	1	animal_dog08.jpg     	animals  	0	dog       	11	dog08       	117	alive    	1	moves	1	natural 	1	n	0	0    	 	0.0	0	349.59089549980104	349.69081830000505	0.0999228002037853
98975	100	252	stimuli\animals2\pigeon\animal_pigeon05.jpg      	1	4	1	animal_pigeon05.jpg  	animals2 	1	pigeon    	28	pigeon05    	284	alive    	1	moves	1	natural 	1	n	0	0    	 	0.0	0	349.740894199815	349.84077499993106	0.0998808001168072
99125	100	253	stimuli\movNat\river\mn_river03.jpg              	1	4	1	mn_river03.jpg       	movNat   	3	river     	29	river03     	292	not_alive	0	moves	1	natural 	1	n	0	0    	 	0.0	0	349.890912799863	349.99079969991	0.0998869000468403
99275	100	254	stimuli\animals2\lemur\animal_lemur02.jpg        	1	4	1	animal_lemur02.jpg   	animals2 	1	lemur     	23	lemur02     	231	alive    	1	moves	1	natural 	1	n	0	0    	 	0.0	0	350.040908099851	350.14079139987	0.0998833000194281
99425	100	255	stimuli\nonmovNat\rock\nmn_rock05.jpg            	1	4	1	nmn_rock05.jpg       	nonmovNat	5	rock      	30	rock05      	304	not_alive	0	still	0	natural 	1	n	0	0    	 	0.0	0	350.190913500031	350.29080810002097	0.0998945999890566
99575	100	256	stimuli\nonmovArt\mug\nma_mug04.jpg              	1	4	1	nma_mug04.jpg        	nonmovArt	4	mug       	26	mug04       	263	not_alive	0	still	0	artefact	0	n	0	0    	 	0.0	0	350.340901199961	350.4407871	0.0998859000392258
99725	100	257	stimuli\nonmovNat\shell\nmn_shell02.jpg          	1	4	1	nmn_shell02.jpg      	nonmovNat	5	shell     	32	shell02     	321	not_alive	0	still	0	natural 	1	n	0	0    	 	0.0	0	350.490894899936	350.59079829999297	0.0999034000560641
99875	100	258	stimuli\nonmovArt\lock\nma_lock02.jpg            	1	4	1	nma_lock02.jpg       	nonmovArt	4	lock      	24	lock02      	241	not_alive	0	still	0	artefact	0	n	0	0    	 	0.0	0	350.64088570000604	350.740780699998	0.0998949999921023
100025	100	259	stimuli\animals2\lemur\animal_lemur09.jpg        	1	4	1	animal_lemur09.jpg   	animals2 	1	lemur     	23	lemur09     	238	alive    	1	moves	1	natural 	1	n	0	0    	 	0.0	0	350.790884600021	350.890806999989	0.0999223999679088
100175	100	260	stimuli\movNat\fire\mn_fire07.jpg                	1	4	1	mn_fire07.jpg        	movNat   	3	fire      	15	fire07      	156	not_alive	0	moves	1	natural 	1	n	0	0    	 	0.0	0	350.940881700022	351.04077959992003	0.0998978998977691
100325	100	261	stimuli\movNat\waterfall\mn_waterfall10.jpg      	1	4	1	mn_waterfall10.jpg   	movNat   	3	waterfall 	37	waterfall10 	379	not_alive	0	moves	1	natural 	1	n	0	0    	 	0.0	0	351.090887299972	351.190794999944	0.0999076999723911
100475	100	262	stimuli\animals\eagle\animal_eagle04.jpg         	1	4	1	animal_eagle04.jpg   	animals  	0	eagle     	13	eagle04     	133	alive    	1	moves	1	natural 	1	n	0	0    	 	0.0	0	351.240878399927	351.340786499903	0.0999080999754369
100625	100	263	stimuli\animals2\lemur\animal_lemur06.jpg        	1	4	1	animal_lemur06.jpg   	animals2 	1	lemur     	23	lemur06     	235	alive    	1	moves	1	natural 	1	n	0	0    	 	0.0	0	351.390885900008	351.49079199996805	0.0999060999602079
100775	100	264	stimuli\animals2\pigeon\animal_pigeon10.jpg      	1	4	1	animal_pigeon10.jpg  	animals2 	1	pigeon    	28	pigeon10    	289	alive    	1	moves	1	natural 	1	n	1	0    	 	0.0	0	351.540894799866	351.640909999842	0.10001519997604198
100925	100	265	stimuli\nonmovNat\crystal\nmn_crystal04.jpg      	1	4	1	nmn_crystal04.jpg    	nonmovNat	5	crystal   	10	crystal04   	103	not_alive	0	still	0	natural 	1	n	0	0    	 	0.0	0	351.690975299804	351.790844699834	0.099869400030002
101075	100	266	stimuli\nonmovNat\cliff\nmn_cliff04.jpg          	1	4	1	nmn_cliff04.jpg      	nonmovNat	5	cliff     	7	cliff04     	73	not_alive	0	still	0	natural 	1	n	0	1    	f	0.29207620001398	1	351.840889499988	351.94078850001097	0.0998990000225603
101225	100	267	stimuli\plant2\clover\plant_clover02.jpg         	1	4	1	plant_clover02.jpg   	plant2   	7	clover    	9	clover02    	91	alive    	1	still	0	natural 	1	n	0	0    	 	0.0	0	351.990889699897	352.090782899875	0.0998931999783963
101375	100	268	stimuli\plant2\palmtree\plant_palmtree08.jpg     	1	4	1	plant_palmtree08.jpg 	plant2   	7	palmtree  	27	palmtree08  	277	alive    	1	still	0	natural 	1	n	0	0    	 	0.0	0	352.140871299896	352.240781399887	0.0999100999906659
101525	100	269	stimuli\animals\cat\animal_cat01.jpg             	1	4	1	animal_cat01.jpg     	animals  	0	cat       	6	cat01       	60	alive    	1	moves	1	natural 	1	n	0	0    	 	0.0	0	352.29088669992103	352.390774599975	0.0998879000544548
101675	100	270	stimuli\animals\cat\animal_cat07.jpg             	1	4	1	animal_cat07.jpg     	animals  	0	cat       	6	cat07       	66	alive    	1	moves	1	natural 	1	n	0	0    	 	0.0	0	352.44090679986397	352.54077959992003	0.0998728000558912
101825	100	271	stimuli\movArt\bus\ma_bus04.jpg                  	1	4	1	ma_bus04.jpg         	movArt   	2	bus       	3	bus04       	33	not_alive	0	moves	1	artefact	0	n	0	0    	 	0.0	0	352.590870999964	352.690791100031	0.0999201000668108
101975	100	272	stimuli\movNat\waves\mn_waves04.jpg              	1	4	1	mn_waves04.jpg       	movNat   	3	waves     	38	waves04     	383	not_alive	0	moves	1	natural 	1	n	0	0    	 	0.0	0	352.74087929981795	352.84078029985494	0.0999010000377893
102125	100	273	stimuli\nonmovNat\crystal\nmn_crystal06.jpg      	1	4	1	nmn_crystal06.jpg    	nonmovNat	5	crystal   	10	crystal06   	105	not_alive	0	still	0	natural 	1	n	0	0    	 	0.0	0	352.89088710001704	352.990758099826	0.0998709998093545
102275	100	274	stimuli\plant\cactus\plant_cactus05.jpg          	1	4	1	plant_cactus05.jpg   	plant    	6	cactus    	4	cactus05    	44	alive    	1	still	0	natural 	1	n	0	0    	 	0.0	0	353.040884499904	353.140764399897	0.0998798999935388
102425	100	275	stimuli\animals\eagle\animal_eagle05.jpg         	1	4	1	animal_eagle05.jpg   	animals  	0	eagle     	13	eagle05     	134	alive    	1	moves	1	natural 	1	n	0	0    	 	0.0	0	353.190870799823	353.290765299927	0.0998945001047104
102575	100	276	stimuli\animals2\whale\animal_whale03.jpg        	1	4	1	animal_whale03.jpg   	animals2 	1	whale     	39	whale03     	392	alive    	1	moves	1	natural 	1	n	0	0    	 	0.0	0	353.340880599804	353.440784699982	0.0999041001778096
102725	100	277	stimuli\nonmovArt\clothespeg\nma_clothespeg05.jpg	1	4	1	nma_clothespeg05.jpg 	nonmovArt	4	clothespeg	8	clothespeg05	84	not_alive	0	still	0	artefact	0	n	0	0    	 	0.0	0	353.49096939992205	353.590687699849	0.0997182999271899
102875	100	278	stimuli\movNat\river\mn_river05.jpg              	1	4	1	mn_river05.jpg       	movNat   	3	river     	29	river05     	294	not_alive	0	moves	1	natural 	1	n	0	0    	 	0.0	0	353.640779000008	353.74060359992995	0.0998245999217033
103025	100	279	stimuli\movArt\car\ma_car05.jpg                  	1	4	1	ma_car05.jpg         	movArt   	2	car       	5	car05       	54	not_alive	0	moves	1	artefact	0	n	1	0    	 	0.0	0	353.79077830002603	353.890647499822	0.0998691997956484
103175	100	280	stimuli\plant\grass\plant_grass07.jpg            	1	4	1	plant_grass07.jpg    	plant    	6	grass     	17	grass07     	176	alive    	1	still	0	natural 	1	n	0	1    	f	0.256034499965608	1	353.9407412	354.04075089981797	0.10000969981774699
103325	100	281	stimuli\animals2\tiger\animal_tiger02.jpg        	1	4	1	animal_tiger02.jpg   	animals2 	1	tiger     	33	tiger02     	331	alive    	1	moves	1	natural 	1	n	0	0    	 	0.0	0	354.090873199981	354.190746299922	0.0998730999417603
103475	100	282	stimuli\nonmovArt\headphones\nma_headphones10.jpg	1	4	1	nma_headphones10.jpg 	nonmovArt	4	headphones	18	headphones10	189	not_alive	0	still	0	artefact	0	n	0	0    	 	0.0	0	354.24088669987395	354.34078600001504	0.09989930014125999
103625	100	283	stimuli\movArt\train\ma_train05.jpg              	1	4	1	ma_train05.jpg       	movArt   	2	train     	34	train05     	344	not_alive	0	moves	1	artefact	0	n	0	0    	 	0.0	0	354.39085830003	354.490748899989	0.0998905999585986
103775	100	284	stimuli\plant2\moss\plant_moss06.jpg             	1	4	1	plant_moss06.jpg     	plant2   	7	moss      	25	moss06      	255	alive    	1	still	0	natural 	1	n	0	0    	 	0.0	0	354.540873399936	354.640774999978	0.099901600042358
103925	100	285	stimuli\movNat\waterfall\mn_waterfall05.jpg      	1	4	1	mn_waterfall05.jpg   	movNat   	3	waterfall 	37	waterfall05 	374	not_alive	0	moves	1	natural 	1	n	0	0    	 	0.0	0	354.690831999993	354.79074239987	0.0999103998765349
104075	100	286	stimuli\plant\flower\plant_flower06.jpg          	1	4	1	plant_flower06.jpg   	plant    	6	flower    	16	flower06    	165	alive    	1	still	0	natural 	1	n	0	0    	 	0.0	0	354.84085199981905	354.940740199992	0.0998882001731544
104225	100	287	stimuli\plant\flower\plant_flower07.jpg          	1	4	1	plant_flower07.jpg   	plant    	6	flower    	16	flower07    	166	alive    	1	still	0	natural 	1	n	0	0    	 	0.0	0	354.99085149983904	355.090749499854	0.0998980000149458
104375	100	288	stimuli\plant\tree\plant_tree01.jpg              	1	4	1	plant_tree01.jpg     	plant    	6	tree      	35	tree01      	350	alive    	1	still	0	natural 	1	n	0	0    	 	0.0	0	355.140832999954	355.24085229984496	0.100019299890846
104525	100	289	stimuli\plant\vine\plant_vine02.jpg              	1	4	1	plant_vine02.jpg     	plant    	6	vine      	36	vine02      	361	alive    	1	still	0	natural 	1	n	0	0    	 	0.0	0	355.291027099825	355.390836099861	0.0998090000357478
104675	100	290	stimuli\plant\tree\plant_tree07.jpg              	1	4	1	plant_tree07.jpg     	plant    	6	tree      	35	tree07      	356	alive    	1	still	0	natural 	1	n	1	0    	 	0.0	0	355.44083329988604	355.540733399801	0.0999000999145209
104825	100	291	stimuli\nonmovNat\cliff\nmn_cliff07.jpg          	1	4	1	nmn_cliff07.jpg      	nonmovNat	5	cliff     	7	cliff07     	76	not_alive	0	still	0	natural 	1	n	0	0    	 	0.0	0	355.59084889991203	355.690747899935	0.0998990000225603
104975	100	292	stimuli\animals2\whale\animal_whale04.jpg        	1	4	1	animal_whale04.jpg   	animals2 	1	whale     	39	whale04     	393	alive    	1	moves	1	natural 	1	n	0	1    	f	0.292029300006106	1	355.74085419997596	355.840733999852	0.09987979987636199
105125	100	293	stimuli\plant2\palmtree\plant_palmtree09.jpg     	1	4	1	plant_palmtree09.jpg 	plant2   	7	palmtree  	27	palmtree09  	278	alive    	1	still	0	natural 	1	n	0	0    	 	0.0	0	355.890862699831	355.990757199936	0.0998945001047104
105275	100	294	stimuli\nonmovNat\rock\nmn_rock04.jpg            	1	4	1	nmn_rock04.jpg       	nonmovNat	5	rock      	30	rock04      	303	not_alive	0	still	0	natural 	1	n	0	0    	 	0.0	0	356.04083690000704	356.140725799836	0.0998888998292386
105425	100	295	stimuli\movArt\boat\ma_boat02.jpg                	1	4	1	ma_boat02.jpg        	movArt   	2	boat      	2	boat02      	21	not_alive	0	moves	1	artefact	0	n	0	0    	 	0.0	0	356.19084059982595	356.290744999889	0.0999044000636786
105575	100	296	stimuli\plant\vine\plant_vine05.jpg              	1	4	1	plant_vine05.jpg     	plant    	6	vine      	36	vine05      	364	alive    	1	still	0	natural 	1	n	0	0    	 	0.0	0	356.340821499936	356.440753999865	0.0999324999283999
105725	100	297	stimuli\plant2\clover\plant_clover10.jpg         	1	4	1	plant_clover10.jpg   	plant2   	7	clover    	9	clover10    	99	alive    	1	still	0	natural 	1	n	0	0    	 	0.0	0	356.490843999898	356.590725400019	0.0998814001213759
105875	100	298	stimuli\plant\cactus\plant_cactus04.jpg          	1	4	1	plant_cactus04.jpg   	plant    	6	cactus    	4	cactus04    	43	alive    	1	still	0	natural 	1	n	0	0    	 	0.0	0	356.640831699828	356.740747499978	0.0999158001504838
106025	100	299	stimuli\nonmovArt\lock\nma_lock01.jpg            	1	4	1	nma_lock01.jpg       	nonmovArt	4	lock      	24	lock01      	240	not_alive	0	still	0	artefact	0	n	0	0    	 	0.0	0	356.79081999999494	356.890771099832	0.0999510998371988
106175	100	300	stimuli\animals2\tiger\animal_tiger10.jpg        	1	4	1	animal_tiger10.jpg   	animals2 	1	tiger     	33	tiger10     	339	alive    	1	moves	1	natural 	1	n	0	0    	 	0.0	0	356.940829399973	357.040811299812	0.0999818998388946
106325	100	301	stimuli\movArt\car\ma_car01.jpg                  	1	4	1	ma_car01.jpg         	movArt   	2	car       	5	car01       	50	not_alive	0	moves	1	artefact	0	n	0	0    	 	0.0	0	357.090985999908	357.190730399918	0.0997444000095129
106475	100	302	stimuli\animals\horse\animal_horse05.jpg         	1	4	1	animal_horse05.jpg   	animals  	0	horse     	20	horse05     	204	alive    	1	moves	1	natural 	1	n	1	0    	 	0.0	0	357.240839999868	357.34072320000297	0.0998832001350819
106625	100	303	stimuli\plant\grass\plant_grass08.jpg            	1	4	1	plant_grass08.jpg    	plant    	6	grass     	17	grass08     	177	alive    	1	still	0	natural 	1	n	0	0    	 	0.0	0	357.39081999985495	357.49071939988096	0.0998994000256061
106775	100	304	stimuli\movNat\fire\mn_fire07.jpg                	1	4	1	mn_fire07.jpg        	movNat   	3	fire      	15	fire07      	156	not_alive	0	moves	1	natural 	1	n	0	1    	f	0.391985800117254	1	357.540824299911	357.640711499844	0.0998871999327093
106925	100	305	stimuli\plant\vine\plant_vine06.jpg              	1	4	1	plant_vine06.jpg     	plant    	6	vine      	36	vine06      	365	alive    	1	still	0	natural 	1	n	0	0    	 	0.0	0	357.690806799801	357.790744599886	0.099937800085172
107075	100	306	stimuli\plant2\lemontree\plant_lemontree09.jpg   	1	4	1	plant_lemontree09.jpg	plant2   	7	lemontree 	22	lemontree09 	228	alive    	1	still	0	natural 	1	n	0	0    	 	0.0	0	357.840928899823	357.940712800017	0.09978390019387
107225	100	307	stimuli\plant2\fern\plant_fern09.jpg             	1	4	1	plant_fern09.jpg     	plant2   	7	fern      	14	fern09      	148	alive    	1	still	0	natural 	1	n	0	0    	 	0.0	0	357.990804199828	358.090713199927	0.0999090000987052
107375	100	308	stimuli\animals2\bee\animal_bee01.jpg            	1	4	1	animal_bee01.jpg     	animals2 	1	bee       	0	bee01       	0	alive    	1	moves	1	natural 	1	n	0	0    	 	0.0	0	358.140832999954	358.24070529989	0.0998722999356687
107525	100	309	stimuli\plant\flower\plant_flower01.jpg          	1	4	1	plant_flower01.jpg   	plant    	6	flower    	16	flower01    	160	alive    	1	still	0	natural 	1	n	0	0    	 	0.0	0	358.29080479987897	358.39073279989	0.09992800001055001
107675	100	310	stimuli\nonmovArt\mug\nma_mug09.jpg              	1	4	1	nma_mug09.jpg        	nonmovArt	4	mug       	26	mug09       	268	not_alive	0	still	0	artefact	0	n	0	0    	 	0.0	0	358.440803899895	358.540740999859	0.0999370999634266
107825	100	311	stimuli\nonmovNat\shell\nmn_shell09.jpg          	1	4	1	nmn_shell09.jpg      	nonmovNat	5	shell     	32	shell09     	328	not_alive	0	still	0	natural 	1	n	0	0    	 	0.0	0	358.590813399991	358.690705099842	0.0998916998505592
107975	100	312	stimuli\nonmovNat\shell\nmn_shell10.jpg          	1	4	1	nmn_shell10.jpg      	nonmovNat	5	shell     	32	shell10     	329	not_alive	0	still	0	natural 	1	n	0	0    	 	0.0	0	358.740813599899	358.84083319990896	0.10001960000954598
108125	100	313	stimuli\nonmovNat\crystal\nmn_crystal04.jpg      	1	4	1	nmn_crystal04.jpg    	nonmovNat	5	crystal   	10	crystal04   	103	not_alive	0	still	0	natural 	1	n	0	0    	 	0.0	0	358.89087739982597	358.990767200012	0.0998898001853376
108275	100	314	stimuli\movArt\bus\ma_bus03.jpg                  	1	4	1	ma_bus03.jpg         	movArt   	2	bus       	3	bus03       	32	not_alive	0	moves	1	artefact	0	n	0	0    	 	0.0	0	359.040810699808	359.14070119988196	0.0998905000742524
108425	100	315	stimuli\animals\dolphin\animal_dolphin09.jpg     	1	4	1	animal_dolphin09.jpg 	animals  	0	dolphin   	12	dolphin09   	128	alive    	1	moves	1	natural 	1	n	0	0    	 	0.0	0	359.190812499961	359.290715700015	0.0999032000545412
108575	100	316	stimuli\animals\eagle\animal_eagle02.jpg         	1	4	1	animal_eagle02.jpg   	animals  	0	eagle     	13	eagle02     	131	alive    	1	moves	1	natural 	1	n	0	0    	 	0.0	0	359.34079990000504	359.440689699957	0.09988979995250698
108725	100	317	stimuli\nonmovArt\bench\nma_bench08.jpg          	1	4	1	nma_bench08.jpg      	nonmovArt	4	bench     	1	bench08     	17	not_alive	0	still	0	artefact	0	n	0	0    	 	0.0	0	359.49079109984496	359.59070569998596	0.0999146001413464
108875	100	318	stimuli\nonmovArt\headphones\nma_headphones03.jpg	1	4	1	nma_headphones03.jpg 	nonmovArt	4	headphones	18	headphones03	182	not_alive	0	still	0	artefact	0	n	0	0    	 	0.0	0	359.64081639982805	359.74070179997904	0.0998854001518338
109025	100	319	stimuli\animals2\bee\animal_bee01.jpg            	1	4	1	animal_bee01.jpg     	animals2 	1	bee       	0	bee01       	0	alive    	1	moves	1	natural 	1	n	0	0    	 	0.0	0	359.790817699861	359.890691499924	0.0998738000635057
114557	100	320	stimuli\movArt\train\ma_train05.jpg              	1	5	1	ma_train05.jpg       	movArt   	2	train     	34	train05     	344	not_alive	0	moves	1	artefact	0	n	0	0    	 	0.0	0	365.323197199963	365.423182099825	0.09998489986173802
114707	100	321	stimuli\plant2\lemontree\plant_lemontree01.jpg   	1	5	1	plant_lemontree01.jpg	plant2   	7	lemontree 	22	lemontree01 	220	alive    	1	still	0	natural 	1	n	0	0    	 	0.0	0	365.47319129994105	365.573180099949	0.0999888000078499
114857	100	322	stimuli\plant\tree\plant_tree10.jpg              	1	5	1	plant_tree10.jpg     	plant    	6	tree      	35	tree10      	359	alive    	1	still	0	natural 	1	n	0	0    	 	0.0	0	365.623190499842	365.723180699861	0.0999902000185102
115007	100	323	stimuli\movNat\waterfall\mn_waterfall05.jpg      	1	5	1	mn_waterfall05.jpg   	movNat   	3	waterfall 	37	waterfall05 	374	not_alive	0	moves	1	natural 	1	n	0	0    	 	0.0	0	365.773188599851	365.873193899868	0.10000530001707401
115157	100	324	stimuli\animals\horse\animal_horse10.jpg         	1	5	1	animal_horse10.jpg   	animals  	0	horse     	20	horse10     	209	alive    	1	moves	1	natural 	1	n	0	0    	 	0.0	0	365.923189599998	366.023177399998	0.0999878000002354
115307	100	325	stimuli\nonmovArt\bench\nma_bench03.jpg          	1	5	1	nma_bench03.jpg      	nonmovArt	4	bench     	1	bench03     	12	not_alive	0	still	0	artefact	0	n	0	0    	 	0.0	0	366.07321299985	366.1731745	0.0999615001492202
115457	100	326	stimuli\plant2\moss\plant_moss05.jpg             	1	5	1	plant_moss05.jpg     	plant2   	7	moss      	25	moss05      	254	alive    	1	still	0	natural 	1	n	0	0    	 	0.0	0	366.22318440000504	366.32317189988703	0.0999874998815357
115607	100	327	stimuli\plant2\moss\plant_moss05.jpg             	1	5	1	plant_moss05.jpg     	plant2   	7	moss      	25	moss05      	254	alive    	1	still	0	natural 	1	n	0	0    	 	0.0	0	366.37318219989504	366.473172199912	0.0999900000169873
115757	100	328	stimuli\animals2\pigeon\animal_pigeon08.jpg      	1	5	1	animal_pigeon08.jpg  	animals2 	1	pigeon    	28	pigeon08    	287	alive    	1	moves	1	natural 	1	n	0	0    	 	0.0	0	366.523180099903	366.62317199981794	0.0999918999150395
115907	100	329	stimuli\nonmovArt\lock\nma_lock01.jpg            	1	5	1	nma_lock01.jpg       	nonmovArt	4	lock      	24	lock01      	240	not_alive	0	still	0	artefact	0	n	0	0    	 	0.0	0	366.673180299811	366.773171399953	0.0999911001417786
116057	100	330	stimuli\nonmovArt\bench\nma_bench09.jpg          	1	5	1	nma_bench09.jpg      	nonmovArt	4	bench     	1	bench09     	18	not_alive	0	still	0	artefact	0	n	0	0    	 	0.0	0	366.82318059983703	366.923165099928	0.0999845000915229
116207	100	331	stimuli\movArt\train\ma_train04.jpg              	1	5	1	ma_train04.jpg       	movArt   	2	train     	34	train04     	343	not_alive	0	moves	1	artefact	0	n	0	0    	 	0.0	0	366.973179699853	367.073178499937	0.0999988000839948
116357	100	332	stimuli\animals\dolphin\animal_dolphin06.jpg     	1	5	1	animal_dolphin06.jpg 	animals  	0	dolphin   	12	dolphin06   	125	alive    	1	moves	1	natural 	1	n	0	0    	 	0.0	0	367.12317819986504	367.22316659987	0.0999884000048041
116507	100	333	stimuli\movArt\boat\ma_boat09.jpg                	1	5	1	ma_boat09.jpg        	movArt   	2	boat      	2	boat09      	28	not_alive	0	moves	1	artefact	0	n	0	0    	 	0.0	0	367.273174699862	367.37316439999296	0.0999897001311183
116657	100	334	stimuli\animals\horse\animal_horse07.jpg         	1	5	1	animal_horse07.jpg   	animals  	0	horse     	20	horse07     	206	alive    	1	moves	1	natural 	1	n	0	0    	 	0.0	0	367.423172299983	367.523161499994	0.0999892000108957
116807	100	335	stimuli\animals2\whale\animal_whale05.jpg        	1	5	1	animal_whale05.jpg   	animals2 	1	whale     	39	whale05     	394	alive    	1	moves	1	natural 	1	n	0	0    	 	0.0	0	367.57317789993203	367.673178999918	0.100001099985093
116957	100	336	stimuli\movArt\bus\ma_bus04.jpg                  	1	5	1	ma_bus04.jpg         	movArt   	2	bus       	3	bus04       	33	not_alive	0	moves	1	artefact	0	n	0	0    	 	0.0	0	367.72317170002503	367.82315750001	0.0999857999850064
117107	100	337	stimuli\nonmovNat\sand\nmn_sand05.jpg            	1	5	1	nmn_sand05.jpg       	nonmovNat	5	sand      	31	sand05      	314	not_alive	0	still	0	natural 	1	n	0	0    	 	0.0	0	367.873169299914	367.973158299923	0.0999890000093728
117257	100	338	stimuli\nonmovNat\sand\nmn_sand06.jpg            	1	5	1	nmn_sand06.jpg       	nonmovNat	5	sand      	31	sand06      	315	not_alive	0	still	0	natural 	1	n	0	0    	 	0.0	0	368.02316769980797	368.123154599918	0.0999869001097977
117407	100	339	stimuli\animals\dolphin\animal_dolphin03.jpg     	1	5	1	animal_dolphin03.jpg 	animals  	0	dolphin   	12	dolphin03   	122	alive    	1	moves	1	natural 	1	n	0	0    	 	0.0	0	368.17316499981104	368.27315429993894	0.0999893001280725
117557	100	340	stimuli\movNat\waves\mn_waves01.jpg              	1	5	1	mn_waves01.jpg       	movNat   	3	waves     	38	waves01     	380	not_alive	0	moves	1	natural 	1	n	0	0    	 	0.0	0	368.32316599995795	368.423152399948	0.0999863999895751
117707	100	341	stimuli\nonmovNat\cliff\nmn_cliff01.jpg          	1	5	1	nmn_cliff01.jpg      	nonmovNat	5	cliff     	7	cliff01     	70	not_alive	0	still	0	natural 	1	n	0	0    	 	0.0	0	368.473166299984	368.573151499964	0.0999851999804377
117857	100	342	stimuli\animals2\bee\animal_bee08.jpg            	1	5	1	animal_bee08.jpg     	animals2 	1	bee       	0	bee08       	7	alive    	1	moves	1	natural 	1	n	0	0    	 	0.0	0	368.623159399955	368.72314949985605	0.0999900999013334
118007	100	343	stimuli\movArt\boat\ma_boat01.jpg                	1	5	1	ma_boat01.jpg        	movArt   	2	boat      	2	boat01      	20	not_alive	0	moves	1	artefact	0	n	0	0    	 	0.0	0	368.773157799849	368.873147999868	0.0999902000185102
118157	100	344	stimuli\movNat\waves\mn_waves07.jpg              	1	5	1	mn_waves07.jpg       	movNat   	3	waves     	38	waves07     	386	not_alive	0	moves	1	natural 	1	n	0	0    	 	0.0	0	368.92315829987604	369.02314809989196	0.0999898000154644
118307	100	345	stimuli\movNat\hotspring\mn_hotspring03.jpg      	1	5	1	mn_hotspring03.jpg   	movNat   	3	hotspring 	21	hotspring03 	212	not_alive	0	moves	1	natural 	1	n	0	0    	 	0.0	0	369.073157199891	369.173160400009	0.10000320011749901
118457	100	346	stimuli\animals\dog\animal_dog03.jpg             	1	5	1	animal_dog03.jpg     	animals  	0	dog       	11	dog03       	112	alive    	1	moves	1	natural 	1	n	0	0    	 	0.0	0	369.223155099899	369.323144400027	0.0999893001280725
118607	100	347	stimuli\movNat\fire\mn_fire10.jpg                	1	5	1	mn_fire10.jpg        	movNat   	3	fire      	15	fire10      	159	not_alive	0	moves	1	natural 	1	n	0	0    	 	0.0	0	369.373164699879	369.47314399992996	0.0999793000519275
118757	100	348	stimuli\plant2\fern\plant_fern09.jpg             	1	5	1	plant_fern09.jpg     	plant2   	7	fern      	14	fern09      	148	alive    	1	still	0	natural 	1	n	0	0    	 	0.0	0	369.52315309992997	369.623137600021	0.0999845000915229
118907	100	349	stimuli\movNat\river\mn_river10.jpg              	1	5	1	mn_river10.jpg       	movNat   	3	river     	29	river10     	299	not_alive	0	moves	1	natural 	1	n	0	0    	 	0.0	0	369.673149699811	369.77313869982004	0.0999890000093728
119057	100	350	stimuli\nonmovArt\headphones\nma_headphones08.jpg	1	5	1	nma_headphones08.jpg 	nonmovArt	4	headphones	18	headphones08	187	not_alive	0	still	0	artefact	0	n	0	0    	 	0.0	0	369.823146999814	369.923138099955	0.0999911001417786
119207	100	351	stimuli\movNat\hotspring\mn_hotspring01.jpg      	1	5	1	mn_hotspring01.jpg   	movNat   	3	hotspring 	21	hotspring01 	210	not_alive	0	moves	1	natural 	1	n	0	0    	 	0.0	0	369.973149999976	370.07313749985803	0.0999874998815357
119357	100	352	stimuli\movNat\hotspring\mn_hotspring04.jpg      	1	5	1	mn_hotspring04.jpg   	movNat   	3	hotspring 	21	hotspring04 	213	not_alive	0	moves	1	natural 	1	n	0	0    	 	0.0	0	370.12314439984	370.223135599867	0.0999912000261247
119507	100	353	stimuli\nonmovArt\mug\nma_mug04.jpg              	1	5	1	nma_mug04.jpg        	nonmovArt	4	mug       	26	mug04       	263	not_alive	0	still	0	artefact	0	n	0	0    	 	0.0	0	370.27314349985704	370.37313069985197	0.0999871999956667
119657	100	354	stimuli\nonmovArt\clothespeg\nma_clothespeg03.jpg	1	5	1	nma_clothespeg03.jpg 	nonmovArt	4	clothespeg	8	clothespeg03	82	not_alive	0	still	0	artefact	0	n	0	0    	 	0.0	0	370.423141399864	370.52313159988296	0.0999902000185102
119807	100	355	stimuli\movArt\car\ma_car02.jpg                  	1	5	1	ma_car02.jpg         	movArt   	2	car       	5	car02       	51	not_alive	0	moves	1	artefact	0	n	0	0    	 	0.0	0	370.57314539980104	370.67312739999	0.099982000188902
119957	100	356	stimuli\animals\cat\animal_cat06.jpg             	1	5	1	animal_cat06.jpg     	animals  	0	cat       	6	cat06       	65	alive    	1	moves	1	natural 	1	n	0	0    	 	0.0	0	370.723139300011	370.82312919991097	0.0999898998998105
120107	100	357	stimuli\plant\cactus\plant_cactus03.jpg          	1	5	1	plant_cactus03.jpg   	plant    	6	cactus    	4	cactus03    	42	alive    	1	still	0	natural 	1	n	0	0    	 	0.0	0	370.87313509988604	370.97312629991205	0.0999912000261247
120257	100	358	stimuli\nonmovNat\rock\nmn_rock01.jpg            	1	5	1	nmn_rock01.jpg       	nonmovNat	5	rock      	30	rock01      	300	not_alive	0	still	0	natural 	1	n	0	0    	 	0.0	0	371.023136299802	371.123124099802	0.0999878000002354
120407	100	359	stimuli\nonmovNat\sand\nmn_sand09.jpg            	1	5	1	nmn_sand09.jpg       	nonmovNat	5	sand      	31	sand09      	318	not_alive	0	still	0	natural 	1	n	0	0    	 	0.0	0	371.17314530001	371.273126899963	0.0999815999530255
120557	100	360	stimuli\movArt\helicopter\ma_helicopter10.jpg    	1	5	1	ma_helicopter10.jpg  	movArt   	2	helicopter	19	helicopter10	199	not_alive	0	moves	1	artefact	0	n	1	0    	 	0.0	0	371.32313389983	371.42312299995695	0.0999891001265496
120707	100	361	stimuli\nonmovArt\mug\nma_mug04.jpg              	1	5	1	nma_mug04.jpg        	nonmovArt	4	mug       	26	mug04       	263	not_alive	0	still	0	artefact	0	n	0	0    	 	0.0	0	371.47313009994105	371.57311849994596	0.0999884000048041
120857	100	362	stimuli\plant\cactus\plant_cactus06.jpg          	1	5	1	plant_cactus06.jpg   	plant    	6	cactus    	4	cactus06    	45	alive    	1	still	0	natural 	1	n	0	1    	f	0.391978400060907	1	371.623129499843	371.723120199982	0.0999907001387328
121007	100	363	stimuli\movNat\fire\mn_fire04.jpg                	1	5	1	mn_fire04.jpg        	movNat   	3	fire      	15	fire04      	153	not_alive	0	moves	1	natural 	1	n	0	0    	 	0.0	0	371.77312919986394	371.873117299983	0.0999881001189351
121157	100	364	stimuli\nonmovArt\lock\nma_lock10.jpg            	1	5	1	nma_lock10.jpg       	nonmovArt	4	lock      	24	lock10      	249	not_alive	0	still	0	artefact	0	n	0	0    	 	0.0	0	371.923127299873	372.023118800018	0.0999915001448244
121307	100	365	stimuli\animals\dolphin\animal_dolphin01.jpg     	1	5	1	animal_dolphin01.jpg 	animals  	0	dolphin   	12	dolphin01   	120	alive    	1	moves	1	natural 	1	n	0	0    	 	0.0	0	372.073127100011	372.17311650002404	0.0999894000124186
121457	100	366	stimuli\movArt\train\ma_train03.jpg              	1	5	1	ma_train03.jpg       	movArt   	2	train     	34	train03     	342	not_alive	0	moves	1	artefact	0	n	0	0    	 	0.0	0	372.223126600031	372.323113299906	0.0999866998754441
121607	100	367	stimuli\movNat\waves\mn_waves08.jpg              	1	5	1	mn_waves08.jpg       	movNat   	3	waves     	38	waves08     	387	not_alive	0	moves	1	natural 	1	n	0	0    	 	0.0	0	372.373127799947	372.47310939989995	0.0999815999530255
121757	100	368	stimuli\movNat\river\mn_river02.jpg              	1	5	1	mn_river02.jpg       	movNat   	3	river     	29	river02     	291	not_alive	0	moves	1	natural 	1	n	0	0    	 	0.0	0	372.523119099904	372.62311009992897	0.0999910000246018
121907	100	369	stimuli\movNat\hotspring\mn_hotspring06.jpg      	1	5	1	mn_hotspring06.jpg   	movNat   	3	hotspring 	21	hotspring06 	215	not_alive	0	moves	1	natural 	1	n	0	0    	 	0.0	0	372.67311819992005	372.77310719992994	0.0999890000093728
122057	100	370	stimuli\animals2\whale\animal_whale03.jpg        	1	5	1	animal_whale03.jpg   	animals2 	1	whale     	39	whale03     	392	alive    	1	moves	1	natural 	1	n	0	0    	 	0.0	0	372.823117099935	372.923113700002	0.0999966000672429
122207	100	371	stimuli\plant2\palmtree\plant_palmtree07.jpg     	1	5	1	plant_palmtree07.jpg 	plant2   	7	palmtree  	27	palmtree07  	276	alive    	1	still	0	natural 	1	n	0	0    	 	0.0	0	372.97313759988197	373.073147899937	0.100010300055146
122357	100	372	stimuli\movArt\helicopter\ma_helicopter04.jpg    	1	5	1	ma_helicopter04.jpg  	movArt   	2	helicopter	19	helicopter04	193	not_alive	0	moves	1	artefact	0	n	0	0    	 	0.0	0	373.123114099959	373.223100999836	0.099986899876967
122507	100	373	stimuli\nonmovNat\crystal\nmn_crystal03.jpg      	1	5	1	nmn_crystal03.jpg    	nonmovNat	5	crystal   	10	crystal03   	102	not_alive	0	still	0	natural 	1	n	0	0    	 	0.0	0	373.27311579999497	373.373102099867	0.0999862998723983
122657	100	374	stimuli\nonmovArt\headphones\nma_headphones05.jpg	1	5	1	nma_headphones05.jpg 	nonmovArt	4	headphones	18	headphones05	184	not_alive	0	still	0	artefact	0	n	0	0    	 	0.0	0	373.423113799887	373.52310569980204	0.0999918999150395
122807	100	375	stimuli\nonmovArt\mug\nma_mug02.jpg              	1	5	1	nma_mug02.jpg        	nonmovArt	4	mug       	26	mug02       	261	not_alive	0	still	0	artefact	0	n	0	0    	 	0.0	0	373.57311140000803	373.673100200016	0.0999888000078499
122957	100	376	stimuli\animals2\tiger\animal_tiger01.jpg        	1	5	1	animal_tiger01.jpg   	animals2 	1	tiger     	33	tiger01     	330	alive    	1	moves	1	natural 	1	n	0	0    	 	0.0	0	373.72311030002294	373.823099499801	0.09998919977806502
123107	100	377	stimuli\movNat\waterfall\mn_waterfall02.jpg      	1	5	1	mn_waterfall02.jpg   	movNat   	3	waterfall 	37	waterfall02 	371	not_alive	0	moves	1	natural 	1	n	0	0    	 	0.0	0	373.87310769990995	373.97309569991205	0.0999880000017583
123257	100	378	stimuli\plant2\fern\plant_fern08.jpg             	1	5	1	plant_fern08.jpg     	plant2   	7	fern      	14	fern08      	147	alive    	1	still	0	natural 	1	n	0	0    	 	0.0	0	374.0231054998	374.123095499817	0.0999900000169873
123407	100	379	stimuli\animals2\bee\animal_bee05.jpg            	1	5	1	animal_bee05.jpg     	animals2 	1	bee       	0	bee05       	4	alive    	1	moves	1	natural 	1	n	0	0    	 	0.0	0	374.173115500016	374.27309189992997	0.0999763999134302
123557	100	380	stimuli\nonmovNat\sand\nmn_sand02.jpg            	1	5	1	nmn_sand02.jpg       	nonmovNat	5	sand      	31	sand02      	311	not_alive	0	still	0	natural 	1	n	0	0    	 	0.0	0	374.323102799943	374.423091599951	0.0999888000078499
123707	100	381	stimuli\plant\grass\plant_grass09.jpg            	1	5	1	plant_grass09.jpg    	plant    	6	grass     	17	grass09     	178	alive    	1	still	0	natural 	1	n	0	0    	 	0.0	0	374.473098999821	374.57309169997495	0.0999927001539617
123857	100	382	stimuli\animals\eagle\animal_eagle04.jpg         	1	5	1	animal_eagle04.jpg   	animals  	0	eagle     	13	eagle04     	133	alive    	1	moves	1	natural 	1	n	0	0    	 	0.0	0	374.62309879995905	374.72309949994104	0.10000069998204698
124007	100	383	stimuli\nonmovNat\shell\nmn_shell01.jpg          	1	5	1	nmn_shell01.jpg      	nonmovNat	5	shell     	32	shell01     	320	not_alive	0	still	0	natural 	1	n	0	0    	 	0.0	0	374.773102900013	374.873089700006	0.0999867999926209
124157	100	384	stimuli\movArt\bus\ma_bus06.jpg                  	1	5	1	ma_bus06.jpg         	movArt   	2	bus       	3	bus06       	35	not_alive	0	moves	1	artefact	0	n	1	0    	 	0.0	0	374.92309659998904	375.02308539999603	0.0999888000078499
124307	100	385	stimuli\movArt\car\ma_car07.jpg                  	1	5	1	ma_car07.jpg         	movArt   	2	car       	5	car07       	56	not_alive	0	moves	1	artefact	0	n	0	0    	 	0.0	0	375.07309479988197	375.173089199932	0.0999944000504911
124457	100	386	stimuli\movNat\waterfall\mn_waterfall06.jpg      	1	5	1	mn_waterfall06.jpg   	movNat   	3	waterfall 	37	waterfall06 	375	not_alive	0	moves	1	natural 	1	n	0	1    	f	0.292144499951974	1	375.22309309989197	375.32308260002196	0.0999895001295954
124607	100	387	stimuli\plant2\moss\plant_moss02.jpg             	1	5	1	plant_moss02.jpg     	plant2   	7	moss      	25	moss02      	251	alive    	1	still	0	natural 	1	n	0	0    	 	0.0	0	375.373091700021	375.473078900017	0.0999871999956667
124757	100	388	stimuli\nonmovNat\crystal\nmn_crystal03.jpg      	1	5	1	nmn_crystal03.jpg    	nonmovNat	5	crystal   	10	crystal03   	102	not_alive	0	still	0	natural 	1	n	0	0    	 	0.0	0	375.523060499923	375.623077899916	0.100017399992794
124907	100	389	stimuli\animals2\bee\animal_bee09.jpg            	1	5	1	animal_bee09.jpg     	animals2 	1	bee       	0	bee09       	8	alive    	1	moves	1	natural 	1	n	0	0    	 	0.0	0	375.67308859992795	375.77308279997703	0.0999942000489682
125057	100	390	stimuli\movNat\river\mn_river06.jpg              	1	5	1	mn_river06.jpg       	movNat   	3	river     	29	river06     	295	not_alive	0	moves	1	natural 	1	n	0	0    	 	0.0	0	375.823086499935	375.92309539998	0.100008900044486
125207	100	391	stimuli\animals\dog\animal_dog03.jpg             	1	5	1	animal_dog03.jpg     	animals  	0	dog       	11	dog03       	112	alive    	1	moves	1	natural 	1	n	0	0    	 	0.0	0	375.973105699988	376.07308999984497	0.0999842998571694
125357	100	392	stimuli\nonmovNat\rock\nmn_rock10.jpg            	1	5	1	nmn_rock10.jpg       	nonmovNat	5	rock      	30	rock10      	309	not_alive	0	still	0	natural 	1	n	0	0    	 	0.0	0	376.12311819987394	376.223085299833	0.0999670999590307
125507	100	393	stimuli\animals2\pigeon\animal_pigeon03.jpg      	1	5	1	animal_pigeon03.jpg  	animals2 	1	pigeon    	28	pigeon03    	282	alive    	1	moves	1	natural 	1	n	0	0    	 	0.0	0	376.273095499957	376.373085199855	0.0999896998982876
125657	100	394	stimuli\movArt\bus\ma_bus06.jpg                  	1	5	1	ma_bus06.jpg         	movArt   	2	bus       	3	bus06       	35	not_alive	0	moves	1	artefact	0	n	0	0    	 	0.0	0	376.423092699843	376.5231011	0.100008400157094
125807	100	395	stimuli\movNat\fire\mn_fire03.jpg                	1	5	1	mn_fire03.jpg        	movNat   	3	fire      	15	fire03      	152	not_alive	0	moves	1	natural 	1	n	0	0    	 	0.0	0	376.57309259986505	376.673081299989	0.0999887001235038
125958	100	396	stimuli\plant\tree\plant_tree02.jpg              	1	5	1	plant_tree02.jpg     	plant    	6	tree      	35	tree02      	351	alive    	1	still	0	natural 	1	n	0	0    	 	0.0	0	376.723942699842	376.823855199851	0.0999125000089407
126108	100	397	stimuli\nonmovNat\rock\nmn_rock03.jpg            	1	5	1	nmn_rock03.jpg       	nonmovNat	5	rock      	30	rock03      	302	not_alive	0	still	0	natural 	1	n	0	0    	 	0.0	0	376.873935799813	376.97385069984	0.0999149000272154
126258	100	398	stimuli\animals\dolphin\animal_dolphin02.jpg     	1	5	1	animal_dolphin02.jpg 	animals  	0	dolphin   	12	dolphin02   	121	alive    	1	moves	1	natural 	1	n	0	0    	 	0.0	0	377.02394979982597	377.123822199879	0.0998724000528454
126408	100	399	stimuli\nonmovArt\bench\nma_bench01.jpg          	1	5	1	nma_bench01.jpg      	nonmovArt	4	bench     	1	bench01     	10	not_alive	0	still	0	artefact	0	n	0	0    	 	0.0	0	377.173946799943	377.273849899881	0.0999030999373644
129758	100	400	stimuli\nonmovArt\headphones\nma_headphones06.jpg	1	6	1	nma_headphones06.jpg 	nonmovArt	4	headphones	18	headphones06	185	not_alive	0	still	0	artefact	0	n	0	0    	 	0.0	0	380.523935599951	380.62381149991404	0.0998758999630808
129908	100	401	stimuli\animals2\whale\animal_whale02.jpg        	1	6	1	animal_whale02.jpg   	animals2 	1	whale     	39	whale02     	391	alive    	1	moves	1	natural 	1	n	0	0    	 	0.0	0	380.67392429988803	380.77381229982694	0.0998879999388009
130058	100	402	stimuli\movArt\bus\ma_bus06.jpg                  	1	6	1	ma_bus06.jpg         	movArt   	2	bus       	3	bus06       	35	not_alive	0	moves	1	artefact	0	n	0	0    	 	0.0	0	380.823913999833	380.923807199812	0.0998931999783963
130208	100	403	stimuli\movNat\waves\mn_waves06.jpg              	1	6	1	mn_waves06.jpg       	movNat   	3	waves     	38	waves06     	385	not_alive	0	moves	1	natural 	1	n	0	0    	 	0.0	0	380.97391359997	381.07382879988296	0.0999151999130845
130358	100	404	stimuli\movNat\hotspring\mn_hotspring04.jpg      	1	6	1	mn_hotspring04.jpg   	movNat   	3	hotspring 	21	hotspring04 	213	not_alive	0	moves	1	natural 	1	n	0	0    	 	0.0	0	381.12391699990303	381.223830599803	0.0999135999009013
130508	100	405	stimuli\nonmovArt\lock\nma_lock03.jpg            	1	6	1	nma_lock03.jpg       	nonmovArt	4	lock      	24	lock03      	242	not_alive	0	still	0	artefact	0	n	0	0    	 	0.0	0	381.273910299875	381.373818099964	0.0999078000895679
130658	100	406	stimuli\nonmovArt\clothespeg\nma_clothespeg03.jpg	1	6	1	nma_clothespeg03.jpg 	nonmovArt	4	clothespeg	8	clothespeg03	82	not_alive	0	still	0	artefact	0	n	0	0    	 	0.0	0	381.423908900004	381.523943899898	0.10003499989397802
130808	100	407	stimuli\plant\flower\plant_flower08.jpg          	1	6	1	plant_flower08.jpg   	plant    	6	flower    	16	flower08    	167	alive    	1	still	0	natural 	1	n	0	0    	 	0.0	0	381.574001699919	381.673849599902	0.0998478999827057
130958	100	408	stimuli\movNat\hotspring\mn_hotspring02.jpg      	1	6	1	mn_hotspring02.jpg   	movNat   	3	hotspring 	21	hotspring02 	211	not_alive	0	moves	1	natural 	1	n	0	0    	 	0.0	0	381.723893199815	381.82379919989	0.0999060000758618
131108	100	409	stimuli\plant2\lemontree\plant_lemontree04.jpg   	1	6	1	plant_lemontree04.jpg	plant2   	7	lemontree 	22	lemontree04 	223	alive    	1	still	0	natural 	1	n	0	0    	 	0.0	0	381.873901099898	381.973804899957	0.0999038000591099
131258	100	410	stimuli\movArt\car\ma_car10.jpg                  	1	6	1	ma_car10.jpg         	movArt   	2	car       	5	car10       	59	not_alive	0	moves	1	artefact	0	n	0	0    	 	0.0	0	382.02388309990096	382.123798899818	0.0999157999176532
131408	100	411	stimuli\animals\eagle\animal_eagle08.jpg         	1	6	1	animal_eagle08.jpg   	animals  	0	eagle     	13	eagle08     	137	alive    	1	moves	1	natural 	1	n	0	0    	 	0.0	0	382.173889399972	382.273812199943	0.0999227999709546
131558	100	412	stimuli\plant2\lemontree\plant_lemontree09.jpg   	1	6	1	plant_lemontree09.jpg	plant2   	7	lemontree 	22	lemontree09 	228	alive    	1	still	0	natural 	1	n	0	0    	 	0.0	0	382.32388179982104	382.42380509991204	0.0999233000911772
131708	100	413	stimuli\nonmovArt\bench\nma_bench06.jpg          	1	6	1	nma_bench06.jpg      	nonmovArt	4	bench     	1	bench06     	15	not_alive	0	still	0	artefact	0	n	0	0    	 	0.0	0	382.473893599818	382.57379119982903	0.0998976000119
131858	100	414	stimuli\nonmovArt\clothespeg\nma_clothespeg01.jpg	1	6	1	nma_clothespeg01.jpg 	nonmovArt	4	clothespeg	8	clothespeg01	80	not_alive	0	still	0	artefact	0	n	0	0    	 	0.0	0	382.62390359980003	382.72379429987603	0.0998907000757753
132008	100	415	stimuli\animals2\pigeon\animal_pigeon07.jpg      	1	6	1	animal_pigeon07.jpg  	animals2 	1	pigeon    	28	pigeon07    	286	alive    	1	moves	1	natural 	1	n	0	0    	 	0.0	0	382.773884200025	382.873802799964	0.0999185999389737
132158	100	416	stimuli\nonmovNat\sand\nmn_sand02.jpg            	1	6	1	nmn_sand02.jpg       	nonmovNat	5	sand      	31	sand02      	311	not_alive	0	still	0	natural 	1	n	0	0    	 	0.0	0	382.923901599832	383.023782299831	0.0998806999996304
132308	100	417	stimuli\animals2\whale\animal_whale08.jpg        	1	6	1	animal_whale08.jpg   	animals2 	1	whale     	39	whale08     	397	alive    	1	moves	1	natural 	1	n	1	0    	 	0.0	0	383.07388959988	383.17380320001405	0.0999136001337319
