onset	duration	eventnumber	stimulus_file	blockno	trialno	is_faststream	stim	stim_category	category_number	exemplar	exemplar_number	image_name	image_number	aliveness	aliveness_bin	movement	movement_bin	naturalness	naturalness_bin	response_hand_moves	istarget	response	keypressed	rt	correct	time_stimon	time_stimoff	stimdur
64251	100	0	stimuli\movArt\helicopter\ma_helicopter09.jpg    	1	1	1	ma_helicopter09.jpg  	movArt   	2	helicopter	19	helicopter09	198	not_alive	0	moves	1	artefact	0	n	0	0    	 	0.0	0	97.2834948	97.3834098999996	0.0999150999996345
64401	100	1	stimuli\plant\grass\plant_grass04.jpg            	1	1	1	plant_grass04.jpg    	plant    	6	grass     	17	grass04     	173	alive    	1	still	0	natural 	1	n	0	0    	 	0.0	0	97.4335220000012	97.53339820000109	0.099876199999926
64551	100	2	stimuli\animals2\pigeon\animal_pigeon09.jpg      	1	1	1	animal_pigeon09.jpg  	animals2 	1	pigeon    	28	pigeon09    	288	alive    	1	moves	1	natural 	1	n	0	0    	 	0.0	0	97.5834801000001	97.6834032999996	0.0999231999994663
64701	100	3	stimuli\plant2\palmtree\plant_palmtree08.jpg     	1	1	1	plant_palmtree08.jpg 	plant2   	7	palmtree  	27	palmtree08  	277	alive    	1	still	0	natural 	1	n	0	0    	 	0.0	0	97.7334775	97.8333973000008	0.0999198000008618
64851	100	4	stimuli\nonmovArt\bench\nma_bench05.jpg          	1	1	1	nma_bench05.jpg      	nonmovArt	4	bench     	1	bench05     	14	not_alive	0	still	0	artefact	0	n	0	0    	 	0.0	0	97.8834907	97.9833827000002	0.0998920000001817
65001	100	5	stimuli\animals2\pigeon\animal_pigeon10.jpg      	1	1	1	animal_pigeon10.jpg  	animals2 	1	pigeon    	28	pigeon10    	289	alive    	1	moves	1	natural 	1	n	0	0    	 	0.0	0	98.03348390000059	98.1333965000012	0.0999126000006072
65151	100	6	stimuli\movArt\train\ma_train05.jpg              	1	1	1	ma_train05.jpg       	movArt   	2	train     	34	train05     	344	not_alive	0	moves	1	artefact	0	n	0	0    	 	0.0	0	98.1834777000004	98.28337550000109	0.09989780000069
65301	100	7	stimuli\plant2\clover\plant_clover04.jpg         	1	1	1	plant_clover04.jpg   	plant2   	7	clover    	9	clover04    	93	alive    	1	still	0	natural 	1	n	0	0    	 	0.0	0	98.3334742000006	98.43337460000109	0.0999004000004788
65451	100	8	stimuli\movNat\waterfall\mn_waterfall07.jpg      	1	1	1	mn_waterfall07.jpg   	movNat   	3	waterfall 	37	waterfall07 	376	not_alive	0	moves	1	natural 	1	n	0	0    	 	0.0	0	98.48376199999979	98.58340770000001	0.09964570000011001
65601	100	9	stimuli\movNat\fire\mn_fire05.jpg                	1	1	1	mn_fire05.jpg        	movNat   	3	fire      	15	fire05      	154	not_alive	0	moves	1	natural 	1	n	0	0    	 	0.0	0	98.6334795000002	98.7333916999996	0.0999121999993804
65751	100	10	stimuli\plant2\fern\plant_fern08.jpg             	1	1	1	plant_fern08.jpg     	plant2   	7	fern      	14	fern08      	147	alive    	1	still	0	natural 	1	n	0	0    	 	0.0	0	98.7834746000008	98.88338060000021	0.0999059999994642
65901	100	11	stimuli\nonmovNat\cliff\nmn_cliff01.jpg          	1	1	1	nmn_cliff01.jpg      	nonmovNat	5	cliff     	7	cliff01     	70	not_alive	0	still	0	natural 	1	n	0	0    	 	0.0	0	98.9335530999997	99.03338319999969	0.0998300999999628
66051	100	12	stimuli\animals\dog\animal_dog03.jpg             	1	1	1	animal_dog03.jpg     	animals  	0	dog       	11	dog03       	112	alive    	1	moves	1	natural 	1	n	0	0    	 	0.0	0	99.0835829999996	99.18338580000092	0.0998028000012709
66201	100	13	stimuli\plant\cactus\plant_cactus05.jpg          	1	1	1	plant_cactus05.jpg   	plant    	6	cactus    	4	cactus05    	44	alive    	1	still	0	natural 	1	n	0	0    	 	0.0	0	99.23346579999999	99.3333872000003	0.0999214000003121
66351	100	14	stimuli\plant2\palmtree\plant_palmtree09.jpg     	1	1	1	plant_palmtree09.jpg 	plant2   	7	palmtree  	27	palmtree09  	278	alive    	1	still	0	natural 	1	n	0	0    	 	0.0	0	99.38346559999991	99.4833663999998	0.0999007999998866
66501	100	15	stimuli\nonmovNat\crystal\nmn_crystal04.jpg      	1	1	1	nmn_crystal04.jpg    	nonmovNat	5	crystal   	10	crystal04   	103	not_alive	0	still	0	natural 	1	n	1	0    	 	0.0	0	99.533464600001	99.6333747000008	0.0999100999997608
66651	100	16	stimuli\nonmovNat\shell\nmn_shell05.jpg          	1	1	1	nmn_shell05.jpg      	nonmovNat	5	shell     	32	shell05     	324	not_alive	0	still	0	natural 	1	n	0	0    	 	0.0	0	99.6834685000012	99.7833823000001	0.0999137999988306
66801	100	17	stimuli\animals\dog\animal_dog02.jpg             	1	1	1	animal_dog02.jpg     	animals  	0	dog       	11	dog02       	111	alive    	1	moves	1	natural 	1	n	0	1    	f	0.292043899999044	1	99.8334570999996	99.93338770000081	0.0999306000012438
66951	100	18	stimuli\movArt\boat\ma_boat06.jpg                	1	1	1	ma_boat06.jpg        	movArt   	2	boat      	2	boat06      	25	not_alive	0	moves	1	artefact	0	n	0	0    	 	0.0	0	99.98345780000092	100.0833609	0.0999030999992101
67101	100	19	stimuli\animals2\whale\animal_whale02.jpg        	1	1	1	animal_whale02.jpg   	animals2 	1	whale     	39	whale02     	391	alive    	1	moves	1	natural 	1	n	0	0    	 	0.0	0	100.133461900001	100.23337240000001	0.0999104999991686
67251	100	20	stimuli\animals\cat\animal_cat09.jpg             	1	1	1	animal_cat09.jpg     	animals  	0	cat       	6	cat09       	68	alive    	1	moves	1	natural 	1	n	0	0    	 	0.0	0	100.283469	100.3833743	0.099905299999591
67401	100	21	stimuli\animals2\whale\animal_whale01.jpg        	1	1	1	animal_whale01.jpg   	animals2 	1	whale     	39	whale01     	390	alive    	1	moves	1	natural 	1	n	0	0    	 	0.0	0	100.4334542	100.5333584	0.09990420000031
67551	100	22	stimuli\animals\eagle\animal_eagle03.jpg         	1	1	1	animal_eagle03.jpg   	animals  	0	eagle     	13	eagle03     	132	alive    	1	moves	1	natural 	1	n	0	0    	 	0.0	0	100.5834485	100.6833615	0.09991300000001499
67701	100	23	stimuli\animals\dolphin\animal_dolphin02.jpg     	1	1	1	animal_dolphin02.jpg 	animals  	0	dolphin   	12	dolphin02   	121	alive    	1	moves	1	natural 	1	n	0	0    	 	0.0	0	100.7334398	100.83346660000099	0.10002680000070499
67851	100	24	stimuli\plant\grass\plant_grass06.jpg            	1	1	1	plant_grass06.jpg    	plant    	6	grass     	17	grass06     	175	alive    	1	still	0	natural 	1	n	0	0    	 	0.0	0	100.883538	100.9833562	0.0998182000002998
68001	100	25	stimuli\animals2\bee\animal_bee03.jpg            	1	1	1	animal_bee03.jpg     	animals2 	1	bee       	0	bee03       	2	alive    	1	moves	1	natural 	1	n	0	0    	 	0.0	0	101.03345350000001	101.13336740000001	0.0999138999995921
68151	100	26	stimuli\animals2\lemur\animal_lemur09.jpg        	1	1	1	animal_lemur09.jpg   	animals2 	1	lemur     	23	lemur09     	238	alive    	1	moves	1	natural 	1	n	0	0    	 	0.0	0	101.1834476	101.2833551	0.09990749999997199
68301	100	27	stimuli\nonmovNat\crystal\nmn_crystal05.jpg      	1	1	1	nmn_crystal05.jpg    	nonmovNat	5	crystal   	10	crystal05   	104	not_alive	0	still	0	natural 	1	n	0	0    	 	0.0	0	101.33345770000099	101.43337960000099	0.0999219000004814
68451	100	28	stimuli\movArt\car\ma_car01.jpg                  	1	1	1	ma_car01.jpg         	movArt   	2	car       	5	car01       	50	not_alive	0	moves	1	artefact	0	n	1	0    	 	0.0	0	101.48345400000099	101.5833795	0.0999254999987897
68601	100	29	stimuli\plant\vine\plant_vine09.jpg              	1	1	1	plant_vine09.jpg     	plant    	6	vine      	36	vine09      	368	alive    	1	still	0	natural 	1	n	0	0    	 	0.0	0	101.63343809999999	101.7333511	0.09991300000001499
68751	100	30	stimuli\animals\horse\animal_horse07.jpg         	1	1	1	animal_horse07.jpg   	animals  	0	horse     	20	horse07     	206	alive    	1	moves	1	natural 	1	n	0	1    	f	0.3919736999996529	1	101.78344290000099	101.883354900001	0.0999119999996764
68901	100	31	stimuli\nonmovArt\clothespeg\nma_clothespeg08.jpg	1	1	1	nma_clothespeg08.jpg 	nonmovArt	4	clothespeg	8	clothespeg08	87	not_alive	0	still	0	artefact	0	n	0	0    	 	0.0	0	101.9334402	102.03335060000099	0.0999104000002262
69051	100	32	stimuli\movNat\waves\mn_waves08.jpg              	1	1	1	mn_waves08.jpg       	movNat   	3	waves     	38	waves08     	387	not_alive	0	moves	1	natural 	1	n	0	0    	 	0.0	0	102.0834452	102.1833439	0.0998987000002671
69201	100	33	stimuli\plant\flower\plant_flower01.jpg          	1	1	1	plant_flower01.jpg   	plant    	6	flower    	16	flower01    	160	alive    	1	still	0	natural 	1	n	0	0    	 	0.0	0	102.23344780000099	102.33334920000001	0.0999013999989984
69351	100	34	stimuli\animals2\bee\animal_bee02.jpg            	1	1	1	animal_bee02.jpg     	animals2 	1	bee       	0	bee02       	1	alive    	1	moves	1	natural 	1	n	0	0    	 	0.0	0	102.383457600001	102.483372300001	0.0999147000002267
69501	100	35	stimuli\movArt\bus\ma_bus07.jpg                  	1	1	1	ma_bus07.jpg         	movArt   	2	bus       	3	bus07       	36	not_alive	0	moves	1	artefact	0	n	0	0    	 	0.0	0	102.533379600001	102.63335409999999	0.0999744999990071
69651	100	36	stimuli\movNat\river\mn_river05.jpg              	1	1	1	mn_river05.jpg       	movNat   	3	river     	29	river05     	294	not_alive	0	moves	1	natural 	1	n	0	0    	 	0.0	0	102.683487	102.7833426	0.0998555999995005
69801	100	37	stimuli\movArt\bus\ma_bus09.jpg                  	1	1	1	ma_bus09.jpg         	movArt   	2	bus       	3	bus09       	38	not_alive	0	moves	1	artefact	0	n	0	0    	 	0.0	0	102.83342059999998	102.9333417	0.0999210999998467
69951	100	38	stimuli\nonmovNat\rock\nmn_rock04.jpg            	1	1	1	nmn_rock04.jpg       	nonmovNat	5	rock      	30	rock04      	303	not_alive	0	still	0	natural 	1	n	0	0    	 	0.0	0	102.98344940000099	103.083331200001	0.0998818000007304
70101	100	39	stimuli\movNat\river\mn_river02.jpg              	1	1	1	mn_river02.jpg       	movNat   	3	river     	29	river02     	291	not_alive	0	moves	1	natural 	1	n	0	0    	 	0.0	0	103.1334441	103.2333229	0.0998787999997148
70251	100	40	stimuli\animals\cat\animal_cat10.jpg             	1	1	1	animal_cat10.jpg     	animals  	0	cat       	6	cat10       	69	alive    	1	moves	1	natural 	1	n	0	0    	 	0.0	0	103.2834165	103.3833259	0.0999093999998876
70401	100	41	stimuli\plant2\fern\plant_fern03.jpg             	1	1	1	plant_fern03.jpg     	plant2   	7	fern      	14	fern03      	142	alive    	1	still	0	natural 	1	n	0	0    	 	0.0	0	103.433420000001	103.53332320000099	0.0999031999999715
70551	100	42	stimuli\plant\cactus\plant_cactus04.jpg          	1	1	1	plant_cactus04.jpg   	plant    	6	cactus    	4	cactus04    	43	alive    	1	still	0	natural 	1	n	1	0    	 	0.0	0	103.5834309	103.68334200000001	0.0999111000000994
70701	100	43	stimuli\animals2\lemur\animal_lemur04.jpg        	1	1	1	animal_lemur04.jpg   	animals2 	1	lemur     	23	lemur04     	233	alive    	1	moves	1	natural 	1	n	0	0    	 	0.0	0	103.73342700000099	103.83332040000099	0.09989339999992801
70851	100	44	stimuli\movArt\boat\ma_boat04.jpg                	1	1	1	ma_boat04.jpg        	movArt   	2	boat      	2	boat04      	23	not_alive	0	moves	1	artefact	0	n	1	1    	f	-0.0079628999992564	1	103.8834197	103.9833287	0.0999090000004798
71001	100	45	stimuli\movNat\waves\mn_waves03.jpg              	1	1	1	mn_waves03.jpg       	movNat   	3	waves     	38	waves03     	382	not_alive	0	moves	1	natural 	1	n	0	0    	 	0.0	0	104.03341809999999	104.1333295	0.0999114000005647
71151	100	46	stimuli\nonmovNat\cliff\nmn_cliff10.jpg          	1	1	1	nmn_cliff10.jpg      	nonmovNat	5	cliff     	7	cliff10     	79	not_alive	0	still	0	natural 	1	n	0	1    	f	0.39196950000041403	1	104.18342009999999	104.2834074	0.0999873000000661
71301	100	47	stimuli\plant\tree\plant_tree09.jpg              	1	1	1	plant_tree09.jpg     	plant    	6	tree      	35	tree09      	358	alive    	1	still	0	natural 	1	n	0	0    	 	0.0	0	104.333529900001	104.4334265	0.0998965999988286
71451	100	48	stimuli\animals\horse\animal_horse07.jpg         	1	1	1	animal_horse07.jpg   	animals  	0	horse     	20	horse07     	206	alive    	1	moves	1	natural 	1	n	0	0    	 	0.0	0	104.48344	104.583328800001	0.0998888000012812
71601	100	49	stimuli\animals\horse\animal_horse03.jpg         	1	1	1	animal_horse03.jpg   	animals  	0	horse     	20	horse03     	202	alive    	1	moves	1	natural 	1	n	0	0    	 	0.0	0	104.63341690000001	104.73332409999999	0.0999071999995067
71751	100	50	stimuli\nonmovArt\mug\nma_mug01.jpg              	1	1	1	nma_mug01.jpg        	nonmovArt	4	mug       	26	mug01       	260	not_alive	0	still	0	artefact	0	n	0	0    	 	0.0	0	104.7834262	104.88332770000099	0.0999015000015788
71901	100	51	stimuli\nonmovArt\bench\nma_bench02.jpg          	1	1	1	nma_bench02.jpg      	nonmovArt	4	bench     	1	bench02     	11	not_alive	0	still	0	artefact	0	n	0	0    	 	0.0	0	104.93337890000099	105.033316000001	0.0999370999998063
72051	100	52	stimuli\movArt\bus\ma_bus07.jpg                  	1	1	1	ma_bus07.jpg         	movArt   	2	bus       	3	bus07       	36	not_alive	0	moves	1	artefact	0	n	0	0    	 	0.0	0	105.083407600001	105.1825553	0.0991476999988663
72200	100	53	stimuli\movArt\train\ma_train02.jpg              	1	1	1	ma_train02.jpg       	movArt   	2	train     	34	train02     	341	not_alive	0	moves	1	artefact	0	n	0	0    	 	0.0	0	105.23256530000099	105.332555200001	0.0999898999998549
72350	100	54	stimuli\animals2\bee\animal_bee02.jpg            	1	1	1	animal_bee02.jpg     	animals2 	1	bee       	0	bee02       	1	alive    	1	moves	1	natural 	1	n	0	0    	 	0.0	0	105.3825636	105.48255659999998	0.09999299999981301
72500	100	55	stimuli\animals2\pigeon\animal_pigeon07.jpg      	1	1	1	animal_pigeon07.jpg  	animals2 	1	pigeon    	28	pigeon07    	286	alive    	1	moves	1	natural 	1	n	0	0    	 	0.0	0	105.5325655	105.6325507	0.0999852000004466
72650	100	56	stimuli\animals2\tiger\animal_tiger09.jpg        	1	1	1	animal_tiger09.jpg   	animals2 	1	tiger     	33	tiger09     	338	alive    	1	moves	1	natural 	1	n	0	0    	 	0.0	0	105.682560900001	105.78255190000002	0.0999909999991359
72800	100	57	stimuli\plant2\moss\plant_moss04.jpg             	1	1	1	plant_moss04.jpg     	plant2   	7	moss      	25	moss04      	253	alive    	1	still	0	natural 	1	n	0	0    	 	0.0	0	105.83256010000001	105.9325494	0.0999893000007432
72950	100	58	stimuli\animals\dolphin\animal_dolphin10.jpg     	1	1	1	animal_dolphin10.jpg 	animals  	0	dolphin   	12	dolphin10   	129	alive    	1	moves	1	natural 	1	n	0	0    	 	0.0	0	105.98255970000001	106.0825436	0.0999838999996427
73100	100	59	stimuli\animals\eagle\animal_eagle03.jpg         	1	1	1	animal_eagle03.jpg   	animals  	0	eagle     	13	eagle03     	132	alive    	1	moves	1	natural 	1	n	0	0    	 	0.0	0	106.13255759999998	106.23255070000098	0.0999931000005744
73250	100	60	stimuli\nonmovNat\sand\nmn_sand05.jpg            	1	1	1	nmn_sand05.jpg       	nonmovNat	5	sand      	31	sand05      	314	not_alive	0	still	0	natural 	1	n	0	0    	 	0.0	0	106.28255459999998	106.382545300001	0.0999907000004896
73400	100	61	stimuli\nonmovNat\crystal\nmn_crystal03.jpg      	1	1	1	nmn_crystal03.jpg    	nonmovNat	5	crystal   	10	crystal03   	102	not_alive	0	still	0	natural 	1	n	0	0    	 	0.0	0	106.4325534	106.53254490000099	0.0999915000011242
73550	100	62	stimuli\animals\cat\animal_cat08.jpg             	1	1	1	animal_cat08.jpg     	animals  	0	cat       	6	cat08       	67	alive    	1	moves	1	natural 	1	n	0	0    	 	0.0	0	106.5825527	106.6825429	0.0999902000003203
73700	100	63	stimuli\movNat\hotspring\mn_hotspring01.jpg      	1	1	1	mn_hotspring01.jpg   	movNat   	3	hotspring 	21	hotspring01 	210	not_alive	0	moves	1	natural 	1	n	0	0    	 	0.0	0	106.73254779999999	106.832542300001	0.0999945000003208
73850	100	64	stimuli\animals2\lemur\animal_lemur03.jpg        	1	1	1	animal_lemur03.jpg   	animals2 	1	lemur     	23	lemur03     	232	alive    	1	moves	1	natural 	1	n	0	0    	 	0.0	0	106.8825523	106.982537600001	0.099985300001208
74000	100	65	stimuli\animals2\tiger\animal_tiger07.jpg        	1	1	1	animal_tiger07.jpg   	animals2 	1	tiger     	33	tiger07     	336	alive    	1	moves	1	natural 	1	n	0	0    	 	0.0	0	107.0325462	107.132537900001	0.0999917000008281
74150	100	66	stimuli\movNat\hotspring\mn_hotspring03.jpg      	1	1	1	mn_hotspring03.jpg   	movNat   	3	hotspring 	21	hotspring03 	212	not_alive	0	moves	1	natural 	1	n	0	0    	 	0.0	0	107.1825463	107.28253530000099	0.0999890000002778
74300	100	67	stimuli\plant\cactus\plant_cactus04.jpg          	1	1	1	plant_cactus04.jpg   	plant    	6	cactus    	4	cactus04    	43	alive    	1	still	0	natural 	1	n	0	0    	 	0.0	0	107.332546600001	107.43253560000099	0.0999890000002778
74450	100	68	stimuli\movArt\car\ma_car05.jpg                  	1	1	1	ma_car05.jpg         	movArt   	2	car       	5	car05       	54	not_alive	0	moves	1	artefact	0	n	0	0    	 	0.0	0	107.48254469999999	107.582534900001	0.0999902000003203
74600	100	69	stimuli\movArt\helicopter\ma_helicopter07.jpg    	1	1	1	ma_helicopter07.jpg  	movArt   	2	helicopter	19	helicopter07	196	not_alive	0	moves	1	artefact	0	n	0	0    	 	0.0	0	107.63254209999998	107.73253000000099	0.0999879000009968
74750	100	70	stimuli\plant2\lemontree\plant_lemontree09.jpg   	1	1	1	plant_lemontree09.jpg	plant2   	7	lemontree 	22	lemontree09 	228	alive    	1	still	0	natural 	1	n	0	0    	 	0.0	0	107.7825386	107.882523800001	0.0999852000004466
74900	100	71	stimuli\plant\vine\plant_vine03.jpg              	1	1	1	plant_vine03.jpg     	plant    	6	vine      	36	vine03      	362	alive    	1	still	0	natural 	1	n	0	0    	 	0.0	0	107.93256140000099	108.03252550000099	0.0999640999998519
75050	100	72	stimuli\animals2\tiger\animal_tiger09.jpg        	1	1	1	animal_tiger09.jpg   	animals2 	1	tiger     	33	tiger09     	338	alive    	1	moves	1	natural 	1	n	0	0    	 	0.0	0	108.082538000001	108.18252440000099	0.099986400000489
75200	100	73	stimuli\nonmovArt\mug\nma_mug01.jpg              	1	1	1	nma_mug01.jpg        	nonmovArt	4	mug       	26	mug01       	260	not_alive	0	still	0	artefact	0	n	0	0    	 	0.0	0	108.232534700001	108.33252490000099	0.0999902000003203
75350	100	74	stimuli\plant2\clover\plant_clover06.jpg         	1	1	1	plant_clover06.jpg   	plant2   	7	clover    	9	clover06    	95	alive    	1	still	0	natural 	1	n	0	0    	 	0.0	0	108.38253449999999	108.482522300001	0.0999878000002354
75500	100	75	stimuli\movNat\river\mn_river04.jpg              	1	1	1	mn_river04.jpg       	movNat   	3	river     	29	river04     	293	not_alive	0	moves	1	natural 	1	n	0	0    	 	0.0	0	108.5325318	108.632521200001	0.0999894000015046
75650	100	76	stimuli\nonmovArt\headphones\nma_headphones07.jpg	1	1	1	nma_headphones07.jpg 	nonmovArt	4	headphones	18	headphones07	186	not_alive	0	still	0	artefact	0	n	0	0    	 	0.0	0	108.6825291	108.7825189	0.0999897999990935
75800	100	77	stimuli\plant2\lemontree\plant_lemontree04.jpg   	1	1	1	plant_lemontree04.jpg	plant2   	7	lemontree 	22	lemontree04 	223	alive    	1	still	0	natural 	1	n	0	0    	 	0.0	0	108.83253020000099	108.93251980000099	0.0999895999993896
75950	100	78	stimuli\plant\flower\plant_flower09.jpg          	1	1	1	plant_flower09.jpg   	plant    	6	flower    	16	flower09    	168	alive    	1	still	0	natural 	1	n	0	0    	 	0.0	0	108.9825298	109.08252090000099	0.0999911000017164
76100	100	79	stimuli\animals\dolphin\animal_dolphin07.jpg     	1	1	1	animal_dolphin07.jpg 	animals  	0	dolphin   	12	dolphin07   	126	alive    	1	moves	1	natural 	1	n	0	0    	 	0.0	0	109.13252539999999	109.23251409999999	0.0999886999998125
78467	100	80	stimuli\movNat\fire\mn_fire01.jpg                	1	2	1	mn_fire01.jpg        	movNat   	3	fire      	15	fire01      	150	not_alive	0	moves	1	natural 	1	n	0	0    	 	0.0	0	111.49917500000099	111.5991596	0.0999845999995159
78617	100	81	stimuli\nonmovArt\lock\nma_lock07.jpg            	1	2	1	nma_lock07.jpg       	nonmovArt	4	lock      	24	lock07      	246	not_alive	0	still	0	artefact	0	n	0	0    	 	0.0	0	111.6491692	111.7491568	0.0999876000005315
78767	100	82	stimuli\plant2\moss\plant_moss06.jpg             	1	2	1	plant_moss06.jpg     	plant2   	7	moss      	25	moss06      	255	alive    	1	still	0	natural 	1	n	0	0    	 	0.0	0	111.79916680000099	111.899153	0.0999861999989662
78917	100	83	stimuli\nonmovArt\lock\nma_lock06.jpg            	1	2	1	nma_lock06.jpg       	nonmovArt	4	lock      	24	lock06      	245	not_alive	0	still	0	artefact	0	n	0	0    	 	0.0	0	111.949164600001	112.04915349999999	0.0999888999995164
79067	100	84	stimuli\nonmovArt\headphones\nma_headphones05.jpg	1	2	1	nma_headphones05.jpg 	nonmovArt	4	headphones	18	headphones05	184	not_alive	0	still	0	artefact	0	n	0	0    	 	0.0	0	112.0991646	112.199150300001	0.0999857000006159
79217	100	85	stimuli\movArt\helicopter\ma_helicopter10.jpg    	1	2	1	ma_helicopter10.jpg  	movArt   	2	helicopter	19	helicopter10	199	not_alive	0	moves	1	artefact	0	n	0	0    	 	0.0	0	112.2491622	112.34915120000001	0.0999890000002778
79367	100	86	stimuli\plant\grass\plant_grass04.jpg            	1	2	1	plant_grass04.jpg    	plant    	6	grass     	17	grass04     	173	alive    	1	still	0	natural 	1	n	0	0    	 	0.0	0	112.399157	112.4991508	0.0999938000004476
79517	100	87	stimuli\movNat\waterfall\mn_waterfall04.jpg      	1	2	1	mn_waterfall04.jpg   	movNat   	3	waterfall 	37	waterfall04 	373	not_alive	0	moves	1	natural 	1	n	0	0    	 	0.0	0	112.54915820000099	112.64914780000099	0.0999895999993896
79667	100	88	stimuli\movNat\hotspring\mn_hotspring08.jpg      	1	2	1	mn_hotspring08.jpg   	movNat   	3	hotspring 	21	hotspring08 	217	not_alive	0	moves	1	natural 	1	n	0	0    	 	0.0	0	112.69915680000099	112.79914620000099	0.0999893999996857
79817	100	89	stimuli\nonmovArt\mug\nma_mug08.jpg              	1	2	1	nma_mug08.jpg        	nonmovArt	4	mug       	26	mug08       	267	not_alive	0	still	0	artefact	0	n	0	0    	 	0.0	0	112.84916100000001	112.9491438	0.0999828000003617
79967	100	90	stimuli\nonmovArt\bench\nma_bench08.jpg          	1	2	1	nma_bench08.jpg      	nonmovArt	4	bench     	1	bench08     	17	not_alive	0	still	0	artefact	0	n	0	0    	 	0.0	0	112.99915420000099	113.0991419	0.099987699999474
80117	100	91	stimuli\plant\vine\plant_vine02.jpg              	1	2	1	plant_vine02.jpg     	plant    	6	vine      	36	vine02      	361	alive    	1	still	0	natural 	1	n	0	0    	 	0.0	0	113.1491511	113.2491405	0.0999893999996857
80267	100	92	stimuli\nonmovNat\shell\nmn_shell09.jpg          	1	2	1	nmn_shell09.jpg      	nonmovNat	5	shell     	32	shell09     	328	not_alive	0	still	0	natural 	1	n	0	0    	 	0.0	0	113.299153800001	113.3991338	0.09997999999905
80417	100	93	stimuli\nonmovArt\lock\nma_lock07.jpg            	1	2	1	nma_lock07.jpg       	nonmovArt	4	lock      	24	lock07      	246	not_alive	0	still	0	artefact	0	n	0	0    	 	0.0	0	113.4491502	113.54914020000099	0.0999900000006164
80567	100	94	stimuli\plant\tree\plant_tree07.jpg              	1	2	1	plant_tree07.jpg     	plant    	6	tree      	35	tree07      	356	alive    	1	still	0	natural 	1	n	0	0    	 	0.0	0	113.59914840000098	113.69913600000099	0.0999876000005315
80717	100	95	stimuli\nonmovNat\sand\nmn_sand01.jpg            	1	2	1	nmn_sand01.jpg       	nonmovNat	5	sand      	31	sand01      	310	not_alive	0	still	0	natural 	1	n	0	0    	 	0.0	0	113.74914610000098	113.849134800001	0.0999886999998125
80867	100	96	stimuli\nonmovArt\headphones\nma_headphones09.jpg	1	2	1	nma_headphones09.jpg 	nonmovArt	4	headphones	18	headphones09	188	not_alive	0	still	0	artefact	0	n	0	0    	 	0.0	0	113.89914650000001	113.99913640000001	0.0999898999998549
81017	100	97	stimuli\movArt\train\ma_train07.jpg              	1	2	1	ma_train07.jpg       	movArt   	2	train     	34	train07     	346	not_alive	0	moves	1	artefact	0	n	0	0    	 	0.0	0	114.04914450000099	114.14913500000002	0.0999904999989667
81166	100	98	stimuli\plant2\palmtree\plant_palmtree01.jpg     	1	2	1	plant_palmtree01.jpg 	plant2   	7	palmtree  	27	palmtree01  	270	alive    	1	still	0	natural 	1	n	0	0    	 	0.0	0	114.19914209999999	114.2991318	0.099989700000151
81316	100	99	stimuli\nonmovNat\shell\nmn_shell10.jpg          	1	2	1	nmn_shell10.jpg      	nonmovNat	5	shell     	32	shell10     	329	not_alive	0	still	0	natural 	1	n	0	0    	 	0.0	0	114.34913999999999	114.44912860000099	0.09998860000087001
81466	100	100	stimuli\nonmovArt\clothespeg\nma_clothespeg04.jpg	1	2	1	nma_clothespeg04.jpg 	nonmovArt	4	clothespeg	8	clothespeg04	83	not_alive	0	still	0	artefact	0	n	0	0    	 	0.0	0	114.49913820000098	114.599129100001	0.0999909000001935
81616	100	101	stimuli\nonmovArt\clothespeg\nma_clothespeg10.jpg	1	2	1	nma_clothespeg10.jpg 	nonmovArt	4	clothespeg	8	clothespeg10	89	not_alive	0	still	0	artefact	0	n	0	0    	 	0.0	0	114.64913689999999	114.749126000001	0.0999891000010393
81766	100	102	stimuli\plant2\clover\plant_clover10.jpg         	1	2	1	plant_clover10.jpg   	plant2   	7	clover    	9	clover10    	99	alive    	1	still	0	natural 	1	n	0	0    	 	0.0	0	114.79913729999998	114.8991243	0.0999869999996008
81916	100	103	stimuli\movArt\car\ma_car06.jpg                  	1	2	1	ma_car06.jpg         	movArt   	2	car       	5	car06       	55	not_alive	0	moves	1	artefact	0	n	0	0    	 	0.0	0	114.949135700001	115.04912540000099	0.099989700000151
82066	100	104	stimuli\plant2\lemontree\plant_lemontree07.jpg   	1	2	1	plant_lemontree07.jpg	plant2   	7	lemontree 	22	lemontree07 	226	alive    	1	still	0	natural 	1	n	0	0    	 	0.0	0	115.0991307	115.1991256	0.0999948999997286
82216	100	105	stimuli\nonmovNat\rock\nmn_rock06.jpg            	1	2	1	nmn_rock06.jpg       	nonmovNat	5	rock      	30	rock06      	305	not_alive	0	still	0	natural 	1	n	0	0    	 	0.0	0	115.24913240000001	115.3491206	0.0999881999996432
82366	100	106	stimuli\nonmovNat\rock\nmn_rock07.jpg            	1	2	1	nmn_rock07.jpg       	nonmovNat	5	rock      	30	rock07      	306	not_alive	0	still	0	natural 	1	n	0	0    	 	0.0	0	115.3991283	115.499117000001	0.0999887000016315
82516	100	107	stimuli\plant\tree\plant_tree08.jpg              	1	2	1	plant_tree08.jpg     	plant    	6	tree      	35	tree08      	357	alive    	1	still	0	natural 	1	n	0	0    	 	0.0	0	115.5491243	115.649117000001	0.0999927000011666
82666	100	108	stimuli\animals\eagle\animal_eagle06.jpg         	1	2	1	animal_eagle06.jpg   	animals  	0	eagle     	13	eagle06     	135	alive    	1	moves	1	natural 	1	n	0	0    	 	0.0	0	115.699125900001	115.7991176	0.0999916999990091
82816	100	109	stimuli\movNat\fire\mn_fire09.jpg                	1	2	1	mn_fire09.jpg        	movNat   	3	fire      	15	fire09      	158	not_alive	0	moves	1	natural 	1	n	0	0    	 	0.0	0	115.84912340000099	115.94911260000099	0.0999891999999818
82966	100	110	stimuli\movArt\boat\ma_boat02.jpg                	1	2	1	ma_boat02.jpg        	movArt   	2	boat      	2	boat02      	21	not_alive	0	moves	1	artefact	0	n	0	0    	 	0.0	0	115.999125	116.09911380000099	0.0999888000005739
83116	100	111	stimuli\plant\flower\plant_flower01.jpg          	1	2	1	plant_flower01.jpg   	plant    	6	flower    	16	flower01    	160	alive    	1	still	0	natural 	1	n	1	0    	 	0.0	0	116.149123500001	116.249107400001	0.0999838999996427
83266	100	112	stimuli\nonmovNat\cliff\nmn_cliff02.jpg          	1	2	1	nmn_cliff02.jpg      	nonmovNat	5	cliff     	7	cliff02     	71	not_alive	0	still	0	natural 	1	n	0	0    	 	0.0	0	116.29912040000099	116.39910790000098	0.09998749999977
83416	100	113	stimuli\movNat\waterfall\mn_waterfall01.jpg      	1	2	1	mn_waterfall01.jpg   	movNat   	3	waterfall 	37	waterfall01 	370	not_alive	0	moves	1	natural 	1	n	0	1    	f	0.392002900000079	1	116.44911869999999	116.54911300000099	0.0999943000006169
83566	100	114	stimuli\animals\dog\animal_dog07.jpg             	1	2	1	animal_dog07.jpg     	animals  	0	dog       	11	dog07       	116	alive    	1	moves	1	natural 	1	n	0	0    	 	0.0	0	116.5991182	116.69910690000002	0.0999886999998125
83716	100	115	stimuli\plant2\fern\plant_fern09.jpg             	1	2	1	plant_fern09.jpg     	plant2   	7	fern      	14	fern09      	148	alive    	1	still	0	natural 	1	n	0	0    	 	0.0	0	116.74911390000099	116.84910490000001	0.0999909999991359
83866	100	116	stimuli\nonmovNat\sand\nmn_sand09.jpg            	1	2	1	nmn_sand09.jpg       	nonmovNat	5	sand      	31	sand09      	318	not_alive	0	still	0	natural 	1	n	0	0    	 	0.0	0	116.8991145	116.99910480000099	0.0999903000010817
84016	100	117	stimuli\animals2\whale\animal_whale03.jpg        	1	2	1	animal_whale03.jpg   	animals2 	1	whale     	39	whale03     	392	alive    	1	moves	1	natural 	1	n	0	0    	 	0.0	0	117.04911320000099	117.14987090000099	0.100757700000031
84167	100	118	stimuli\movNat\waves\mn_waves04.jpg              	1	2	1	mn_waves04.jpg       	movNat   	3	waves     	38	waves04     	383	not_alive	0	moves	1	natural 	1	n	0	0    	 	0.0	0	117.19994510000099	117.299878100001	0.0999329999995097
84317	100	119	stimuli\plant2\moss\plant_moss05.jpg             	1	2	1	plant_moss05.jpg     	plant2   	7	moss      	25	moss05      	254	alive    	1	still	0	natural 	1	n	0	0    	 	0.0	0	117.349948700001	117.44985279999999	0.0999040999995486
84467	100	120	stimuli\movNat\waterfall\mn_waterfall01.jpg      	1	2	1	mn_waterfall01.jpg   	movNat   	3	waterfall 	37	waterfall01 	370	not_alive	0	moves	1	natural 	1	n	0	0    	 	0.0	0	117.499938500001	117.59985659999998	0.0999180999988311
84617	100	121	stimuli\movNat\fire\mn_fire04.jpg                	1	2	1	mn_fire04.jpg        	movNat   	3	fire      	15	fire04      	153	not_alive	0	moves	1	natural 	1	n	0	0    	 	0.0	0	117.64993730000099	117.74987060000099	0.0999332999999751
84767	100	122	stimuli\nonmovNat\sand\nmn_sand08.jpg            	1	2	1	nmn_sand08.jpg       	nonmovNat	5	sand      	31	sand08      	317	not_alive	0	still	0	natural 	1	n	0	0    	 	0.0	0	117.7999466	117.89985060000099	0.0999040000006061
84917	100	123	stimuli\plant2\moss\plant_moss10.jpg             	1	2	1	plant_moss10.jpg     	plant2   	7	moss      	25	moss10      	259	alive    	1	still	0	natural 	1	n	0	0    	 	0.0	0	117.94994640000002	118.04985330000099	0.0999069000008603
85067	100	124	stimuli\movNat\waves\mn_waves09.jpg              	1	2	1	mn_waves09.jpg       	movNat   	3	waves     	38	waves09     	388	not_alive	0	moves	1	natural 	1	n	0	0    	 	0.0	0	118.0999419	118.19985919999999	0.0999173000000155
85217	100	125	stimuli\animals2\lemur\animal_lemur10.jpg        	1	2	1	animal_lemur10.jpg   	animals2 	1	lemur     	23	lemur10     	239	alive    	1	moves	1	natural 	1	n	0	0    	 	0.0	0	118.249940900001	118.3498581	0.099917199999254
85367	100	126	stimuli\nonmovArt\bench\nma_bench05.jpg          	1	2	1	nma_bench05.jpg      	nonmovArt	4	bench     	1	bench05     	14	not_alive	0	still	0	artefact	0	n	1	0    	 	0.0	0	118.39996210000001	118.4998375	0.0998753999992914
85517	100	127	stimuli\plant\grass\plant_grass10.jpg            	1	2	1	plant_grass10.jpg    	plant    	6	grass     	17	grass10     	179	alive    	1	still	0	natural 	1	n	0	0    	 	0.0	0	118.5499368	118.6498508	0.0999140000003535
85667	100	128	stimuli\movNat\river\mn_river09.jpg              	1	2	1	mn_river09.jpg       	movNat   	3	river     	29	river09     	298	not_alive	0	moves	1	natural 	1	n	0	0    	 	0.0	0	118.69994779999999	118.79985490000001	0.0999071000005642
85817	100	129	stimuli\plant2\lemontree\plant_lemontree03.jpg   	1	2	1	plant_lemontree03.jpg	plant2   	7	lemontree 	22	lemontree03 	222	alive    	1	still	0	natural 	1	n	0	1    	f	0.542056100000991	1	118.85003110000099	118.9498291	0.0997979999992821
85967	100	130	stimuli\nonmovArt\mug\nma_mug07.jpg              	1	2	1	nma_mug07.jpg        	nonmovArt	4	mug       	26	mug07       	266	not_alive	0	still	0	artefact	0	n	0	0    	 	0.0	0	118.999937300001	119.09987530000001	0.0999379999993834
86117	100	131	stimuli\movArt\car\ma_car05.jpg                  	1	2	1	ma_car05.jpg         	movArt   	2	car       	5	car05       	54	not_alive	0	moves	1	artefact	0	n	0	0    	 	0.0	0	119.14993770000001	119.2498643	0.0999265999998897
86267	100	132	stimuli\nonmovNat\crystal\nmn_crystal06.jpg      	1	2	1	nmn_crystal06.jpg    	nonmovNat	5	crystal   	10	crystal06   	105	not_alive	0	still	0	natural 	1	n	0	0    	 	0.0	0	119.29993520000099	119.39985180000099	0.0999166000001423
86417	100	133	stimuli\animals2\whale\animal_whale06.jpg        	1	2	1	animal_whale06.jpg   	animals2 	1	whale     	39	whale06     	395	alive    	1	moves	1	natural 	1	n	0	0    	 	0.0	0	119.44992240000099	119.54985880000099	0.0999363999999332
86567	100	134	stimuli\movArt\bus\ma_bus08.jpg                  	1	2	1	ma_bus08.jpg         	movArt   	2	bus       	3	bus08       	37	not_alive	0	moves	1	artefact	0	n	0	0    	 	0.0	0	119.5998875	119.69985179999999	0.0999642999995558
86717	100	135	stimuli\plant\cactus\plant_cactus07.jpg          	1	2	1	plant_cactus07.jpg   	plant    	6	cactus    	4	cactus07    	46	alive    	1	still	0	natural 	1	n	0	0    	 	0.0	0	119.749928900001	119.8498322	0.09990329999891401
86867	100	136	stimuli\plant\vine\plant_vine10.jpg              	1	2	1	plant_vine10.jpg     	plant    	6	vine      	36	vine10      	369	alive    	1	still	0	natural 	1	n	0	0    	 	0.0	0	119.89993730000099	119.9998366	0.0998992999993788
87017	100	137	stimuli\nonmovArt\headphones\nma_headphones06.jpg	1	2	1	nma_headphones06.jpg 	nonmovArt	4	headphones	18	headphones06	185	not_alive	0	still	0	artefact	0	n	0	0    	 	0.0	0	120.04991310000001	120.14982659999998	0.0999135000001842
87167	100	138	stimuli\plant2\lemontree\plant_lemontree07.jpg   	1	2	1	plant_lemontree07.jpg	plant2   	7	lemontree 	22	lemontree07 	226	alive    	1	still	0	natural 	1	n	0	0    	 	0.0	0	120.19992260000099	120.2998775	0.0999548999989201
87317	100	139	stimuli\movArt\helicopter\ma_helicopter02.jpg    	1	2	1	ma_helicopter02.jpg  	movArt   	2	helicopter	19	helicopter02	191	not_alive	0	moves	1	artefact	0	n	0	0    	 	0.0	0	120.34990800000001	120.44982800000099	0.0999200000005657
87467	100	140	stimuli\animals2\pigeon\animal_pigeon08.jpg      	1	2	1	animal_pigeon08.jpg  	animals2 	1	pigeon    	28	pigeon08    	287	alive    	1	moves	1	natural 	1	n	0	0    	 	0.0	0	120.49988780000099	120.59983629999999	0.0999484999993001
87617	100	141	stimuli\movNat\waterfall\mn_waterfall06.jpg      	1	2	1	mn_waterfall06.jpg   	movNat   	3	waterfall 	37	waterfall06 	375	not_alive	0	moves	1	natural 	1	n	0	0    	 	0.0	0	120.6499879	120.74982390000001	0.0998359999994136
87767	100	142	stimuli\animals\dog\animal_dog08.jpg             	1	2	1	animal_dog08.jpg     	animals  	0	dog       	11	dog08       	117	alive    	1	moves	1	natural 	1	n	0	0    	 	0.0	0	120.7999021	120.8998405	0.0999384000006102
87917	100	143	stimuli\plant\flower\plant_flower07.jpg          	1	2	1	plant_flower07.jpg   	plant    	6	flower    	16	flower07    	166	alive    	1	still	0	natural 	1	n	0	0    	 	0.0	0	120.94991810000099	121.0498487	0.0999305999994248
88067	100	144	stimuli\animals\dog\animal_dog09.jpg             	1	2	1	animal_dog09.jpg     	animals  	0	dog       	11	dog09       	118	alive    	1	moves	1	natural 	1	n	0	0    	 	0.0	0	121.0999087	121.19981030000099	0.0999016000005212
88217	100	145	stimuli\movArt\helicopter\ma_helicopter02.jpg    	1	2	1	ma_helicopter02.jpg  	movArt   	2	helicopter	19	helicopter02	191	not_alive	0	moves	1	artefact	0	n	0	0    	 	0.0	0	121.2498825	121.3498189	0.0999363999999332
88367	100	146	stimuli\plant2\fern\plant_fern04.jpg             	1	2	1	plant_fern04.jpg     	plant2   	7	fern      	14	fern04      	143	alive    	1	still	0	natural 	1	n	0	0    	 	0.0	0	121.39987740000099	121.4998216	0.0999441999992996
88517	100	147	stimuli\animals2\lemur\animal_lemur02.jpg        	1	2	1	animal_lemur02.jpg   	animals2 	1	lemur     	23	lemur02     	231	alive    	1	moves	1	natural 	1	n	1	0    	 	0.0	0	121.54989779999998	121.6498082	0.0999104000002262
88667	100	148	stimuli\animals2\bee\animal_bee06.jpg            	1	2	1	animal_bee06.jpg     	animals2 	1	bee       	0	bee06       	5	alive    	1	moves	1	natural 	1	n	0	0    	 	0.0	0	121.69990700000001	121.799807200001	0.0999002000007749
88817	100	149	stimuli\plant\cactus\plant_cactus06.jpg          	1	2	1	plant_cactus06.jpg   	plant    	6	cactus    	4	cactus06    	45	alive    	1	still	0	natural 	1	n	0	1    	f	0.292041300001074	1	121.84990630000001	121.9498114	0.0999050999998871
88967	100	150	stimuli\animals2\bee\animal_bee10.jpg            	1	2	1	animal_bee10.jpg     	animals2 	1	bee       	0	bee10       	9	alive    	1	moves	1	natural 	1	n	0	0    	 	0.0	0	121.9998999	122.09981119999999	0.0999112999998033
89117	100	151	stimuli\plant2\moss\plant_moss03.jpg             	1	2	1	plant_moss03.jpg     	plant2   	7	moss      	25	moss03      	252	alive    	1	still	0	natural 	1	n	0	0    	 	0.0	0	122.14991090000002	122.24979900000099	0.099888100001408
89267	100	152	stimuli\animals\horse\animal_horse04.jpg         	1	2	1	animal_horse04.jpg   	animals  	0	horse     	20	horse04     	203	alive    	1	moves	1	natural 	1	n	0	0    	 	0.0	0	122.2999315	122.39980109999999	0.099869600000602
89417	100	153	stimuli\animals2\pigeon\animal_pigeon02.jpg      	1	2	1	animal_pigeon02.jpg  	animals2 	1	pigeon    	28	pigeon02    	281	alive    	1	moves	1	natural 	1	n	0	0    	 	0.0	0	122.44994399999999	122.54982320000099	0.0998792000009416
89567	100	154	stimuli\animals\horse\animal_horse06.jpg         	1	2	1	animal_horse06.jpg   	animals  	0	horse     	20	horse06     	205	alive    	1	moves	1	natural 	1	n	0	0    	 	0.0	0	122.5999077	122.6997999	0.0998921999998856
89717	100	155	stimuli\animals\cat\animal_cat07.jpg             	1	2	1	animal_cat07.jpg     	animals  	0	cat       	6	cat07       	66	alive    	1	moves	1	natural 	1	n	0	0    	 	0.0	0	122.74989340000002	122.8498101	0.0999167000009038
89867	100	156	stimuli\nonmovArt\mug\nma_mug10.jpg              	1	2	1	nma_mug10.jpg        	nonmovArt	4	mug       	26	mug10       	269	not_alive	0	still	0	artefact	0	n	0	0    	 	0.0	0	122.89988120000099	122.99980330000099	0.0999221000001853
90017	100	157	stimuli\plant2\clover\plant_clover07.jpg         	1	2	1	plant_clover07.jpg   	plant2   	7	clover    	9	clover07    	96	alive    	1	still	0	natural 	1	n	0	0    	 	0.0	0	123.049896500001	123.149808800001	0.0999123000001418
90167	100	158	stimuli\movArt\boat\ma_boat02.jpg                	1	2	1	ma_boat02.jpg        	movArt   	2	boat      	2	boat02      	21	not_alive	0	moves	1	artefact	0	n	0	0    	 	0.0	0	123.1998852	123.299790000001	0.0999048000012408
90317	100	159	stimuli\nonmovArt\lock\nma_lock05.jpg            	1	2	1	nma_lock05.jpg       	nonmovArt	4	lock      	24	lock05      	244	not_alive	0	still	0	artefact	0	n	0	0    	 	0.0	0	123.34988730000099	123.4498148	0.0999274999994668
99101	100	160	stimuli\movNat\waves\mn_waves02.jpg              	1	3	1	mn_waves02.jpg       	movNat   	3	waves     	38	waves02     	381	not_alive	0	moves	1	natural 	1	n	0	0    	 	0.0	0	132.13314499999998	132.23303280000098	0.0998878000009426
99251	100	161	stimuli\nonmovNat\cliff\nmn_cliff03.jpg          	1	3	1	nmn_cliff03.jpg      	nonmovNat	5	cliff     	7	cliff03     	72	not_alive	0	still	0	natural 	1	n	0	0    	 	0.0	0	132.283126300001	132.38303290000098	0.0999066000003949
99401	100	162	stimuli\nonmovNat\cliff\nmn_cliff02.jpg          	1	3	1	nmn_cliff02.jpg      	nonmovNat	5	cliff     	7	cliff02     	71	not_alive	0	still	0	natural 	1	n	0	0    	 	0.0	0	132.4331282	132.533032400001	0.09990420000031
99551	100	163	stimuli\plant\tree\plant_tree02.jpg              	1	3	1	plant_tree02.jpg     	plant    	6	tree      	35	tree02      	351	alive    	1	still	0	natural 	1	n	0	0    	 	0.0	0	132.5831273	132.6830488	0.0999214999992546
99701	100	164	stimuli\nonmovNat\shell\nmn_shell02.jpg          	1	3	1	nmn_shell02.jpg      	nonmovNat	5	shell     	32	shell02     	321	not_alive	0	still	0	natural 	1	n	0	0    	 	0.0	0	132.733127000001	132.833024200001	0.0998971999997593
99851	100	165	stimuli\animals2\pigeon\animal_pigeon07.jpg      	1	3	1	animal_pigeon07.jpg  	animals2 	1	pigeon    	28	pigeon07    	286	alive    	1	moves	1	natural 	1	n	0	0    	 	0.0	0	132.883135600001	132.983026900001	0.0998913000003085
100001	100	166	stimuli\animals\eagle\animal_eagle01.jpg         	1	3	1	animal_eagle01.jpg   	animals  	0	eagle     	13	eagle01     	130	alive    	1	moves	1	natural 	1	n	0	0    	 	0.0	0	133.033121500001	133.133023600001	0.0999021000006905
100151	100	167	stimuli\movNat\river\mn_river05.jpg              	1	3	1	mn_river05.jpg       	movNat   	3	river     	29	river05     	294	not_alive	0	moves	1	natural 	1	n	0	0    	 	0.0	0	133.1831231	133.2830307	0.0999076000007335
100301	100	168	stimuli\movNat\river\mn_river09.jpg              	1	3	1	mn_river09.jpg       	movNat   	3	river     	29	river09     	298	not_alive	0	moves	1	natural 	1	n	0	0    	 	0.0	0	133.3331385	133.43302309999999	0.0998846000002231
100451	100	169	stimuli\plant\grass\plant_grass05.jpg            	1	3	1	plant_grass05.jpg    	plant    	6	grass     	17	grass05     	174	alive    	1	still	0	natural 	1	n	0	0    	 	0.0	0	133.4831142	133.583026	0.0999117999999725
100601	100	170	stimuli\plant2\lemontree\plant_lemontree08.jpg   	1	3	1	plant_lemontree08.jpg	plant2   	7	lemontree 	22	lemontree08 	227	alive    	1	still	0	natural 	1	n	0	0    	 	0.0	0	133.633116000001	133.73312620000098	0.100010199999815
100751	100	171	stimuli\nonmovNat\crystal\nmn_crystal05.jpg      	1	3	1	nmn_crystal05.jpg    	nonmovNat	5	crystal   	10	crystal05   	104	not_alive	0	still	0	natural 	1	n	0	0    	 	0.0	0	133.78320250000098	133.883030300001	0.0998278000006394
100901	100	172	stimuli\animals\cat\animal_cat05.jpg             	1	3	1	animal_cat05.jpg     	animals  	0	cat       	6	cat05       	64	alive    	1	moves	1	natural 	1	n	0	0    	 	0.0	0	133.93311119999998	134.03301240000098	0.0999012000011134
101051	100	173	stimuli\nonmovArt\headphones\nma_headphones02.jpg	1	3	1	nma_headphones02.jpg 	nonmovArt	4	headphones	18	headphones02	181	not_alive	0	still	0	artefact	0	n	0	0    	 	0.0	0	134.083111400001	134.18302360000098	0.0999121999993804
101201	100	174	stimuli\animals2\tiger\animal_tiger10.jpg        	1	3	1	animal_tiger10.jpg   	animals2 	1	tiger     	33	tiger10     	339	alive    	1	moves	1	natural 	1	n	0	0    	 	0.0	0	134.2331132	134.333035	0.0999217999997199
101351	100	175	stimuli\plant2\palmtree\plant_palmtree10.jpg     	1	3	1	plant_palmtree10.jpg 	plant2   	7	palmtree  	27	palmtree10  	279	alive    	1	still	0	natural 	1	n	0	0    	 	0.0	0	134.38310080000002	134.4830158	0.09991500000069199
101501	100	176	stimuli\nonmovArt\headphones\nma_headphones01.jpg	1	3	1	nma_headphones01.jpg 	nonmovArt	4	headphones	18	headphones01	180	not_alive	0	still	0	artefact	0	n	0	0    	 	0.0	0	134.533107500001	134.6329926	0.0998850999985734
101651	100	177	stimuli\animals2\whale\animal_whale09.jpg        	1	3	1	animal_whale09.jpg   	animals2 	1	whale     	39	whale09     	398	alive    	1	moves	1	natural 	1	n	0	0    	 	0.0	0	134.6831072	134.783024600001	0.0999174000007769
101801	100	178	stimuli\plant\vine\plant_vine08.jpg              	1	3	1	plant_vine08.jpg     	plant    	6	vine      	36	vine08      	367	alive    	1	still	0	natural 	1	n	0	0    	 	0.0	0	134.833115900001	134.93302419999998	0.0999082999987877
101951	100	179	stimuli\movArt\bus\ma_bus06.jpg                  	1	3	1	ma_bus06.jpg         	movArt   	2	bus       	3	bus06       	35	not_alive	0	moves	1	artefact	0	n	0	0    	 	0.0	0	134.983112400001	135.083001500001	0.0998890999999275
102101	100	180	stimuli\plant\tree\plant_tree01.jpg              	1	3	1	plant_tree01.jpg     	plant    	6	tree      	35	tree01      	350	alive    	1	still	0	natural 	1	n	0	0    	 	0.0	0	135.13310969999998	135.233030200001	0.099920500000735
102251	100	181	stimuli\movArt\boat\ma_boat03.jpg                	1	3	1	ma_boat03.jpg        	movArt   	2	boat      	2	boat03      	22	not_alive	0	moves	1	artefact	0	n	0	0    	 	0.0	0	135.2831052	135.38304109999999	0.0999358999997639
102401	100	182	stimuli\plant2\clover\plant_clover02.jpg         	1	3	1	plant_clover02.jpg   	plant2   	7	clover    	9	clover02    	91	alive    	1	still	0	natural 	1	n	0	0    	 	0.0	0	135.4330476	135.5330017	0.0999541000001045
102551	100	183	stimuli\movNat\fire\mn_fire02.jpg                	1	3	1	mn_fire02.jpg        	movNat   	3	fire      	15	fire02      	151	not_alive	0	moves	1	natural 	1	n	0	0    	 	0.0	0	135.58313570000098	135.683016500001	0.0998808000003919
102701	100	184	stimuli\movArt\train\ma_train08.jpg              	1	3	1	ma_train08.jpg       	movArt   	2	train     	34	train08     	347	not_alive	0	moves	1	artefact	0	n	0	0    	 	0.0	0	135.733087100001	135.832993	0.0999058999987028
102851	100	185	stimuli\movNat\hotspring\mn_hotspring04.jpg      	1	3	1	mn_hotspring04.jpg   	movNat   	3	hotspring 	21	hotspring04 	213	not_alive	0	moves	1	natural 	1	n	0	0    	 	0.0	0	135.88309099999998	135.983004	0.09991300000001499
103001	100	186	stimuli\movArt\train\ma_train04.jpg              	1	3	1	ma_train04.jpg       	movArt   	2	train     	34	train04     	343	not_alive	0	moves	1	artefact	0	n	0	0    	 	0.0	0	136.03308380000098	136.13300470000098	0.0999209000001428
103151	100	187	stimuli\nonmovNat\sand\nmn_sand04.jpg            	1	3	1	nmn_sand04.jpg       	nonmovNat	5	sand      	31	sand04      	313	not_alive	0	still	0	natural 	1	n	0	0    	 	0.0	0	136.183093200001	136.28300769999998	0.0999144999987038
103301	100	188	stimuli\plant\cactus\plant_cactus02.jpg          	1	3	1	plant_cactus02.jpg   	plant    	6	cactus    	4	cactus02    	41	alive    	1	still	0	natural 	1	n	0	0    	 	0.0	0	136.33310459999998	136.4330003	0.0998956999992515
103451	100	189	stimuli\nonmovNat\sand\nmn_sand03.jpg            	1	3	1	nmn_sand03.jpg       	nonmovNat	5	sand      	31	sand03      	312	not_alive	0	still	0	natural 	1	n	0	0    	 	0.0	0	136.48309	136.5830097	0.0999197000001004
103601	100	190	stimuli\movArt\bus\ma_bus04.jpg                  	1	3	1	ma_bus04.jpg         	movArt   	2	bus       	3	bus04       	33	not_alive	0	moves	1	artefact	0	n	0	0    	 	0.0	0	136.633091600001	136.732994	0.0999023999993369
103751	100	191	stimuli\animals\horse\animal_horse10.jpg         	1	3	1	animal_horse10.jpg   	animals  	0	horse     	20	horse10     	209	alive    	1	moves	1	natural 	1	n	0	0    	 	0.0	0	136.783083	136.882997800001	0.0999148000009881
103901	100	192	stimuli\animals\cat\animal_cat07.jpg             	1	3	1	animal_cat07.jpg     	animals  	0	cat       	6	cat07       	66	alive    	1	moves	1	natural 	1	n	0	0    	 	0.0	0	136.93309	137.0329819	0.0998918999994202
104051	100	193	stimuli\movArt\helicopter\ma_helicopter08.jpg    	1	3	1	ma_helicopter08.jpg  	movArt   	2	helicopter	19	helicopter08	197	not_alive	0	moves	1	artefact	0	n	1	0    	 	0.0	0	137.083089900001	137.182994700001	0.0999047999994218
104201	100	194	stimuli\animals2\bee\animal_bee09.jpg            	1	3	1	animal_bee09.jpg     	animals2 	1	bee       	0	bee09       	8	alive    	1	moves	1	natural 	1	n	0	0    	 	0.0	0	137.23307690000001	137.3329858	0.0999088999997184
104351	100	195	stimuli\nonmovArt\lock\nma_lock06.jpg            	1	3	1	nma_lock06.jpg       	nonmovArt	4	lock      	24	lock06      	245	not_alive	0	still	0	artefact	0	n	0	1    	f	0.292022999999972	1	137.38311290000098	137.483033	0.0999200999995082
104501	100	196	stimuli\movNat\waterfall\mn_waterfall10.jpg      	1	3	1	mn_waterfall10.jpg   	movNat   	3	waterfall 	37	waterfall10 	379	not_alive	0	moves	1	natural 	1	n	0	0    	 	0.0	0	137.533082600001	137.63297790000098	0.0998952999998437
104651	100	197	stimuli\animals2\tiger\animal_tiger08.jpg        	1	3	1	animal_tiger08.jpg   	animals2 	1	tiger     	33	tiger08     	337	alive    	1	moves	1	natural 	1	n	0	0    	 	0.0	0	137.683080700001	137.78297940000098	0.0998987000002671
104801	100	198	stimuli\movArt\train\ma_train02.jpg              	1	3	1	ma_train02.jpg       	movArt   	2	train     	34	train02     	341	not_alive	0	moves	1	artefact	0	n	0	0    	 	0.0	0	137.83307960000099	137.932984000001	0.09990440000001401
104951	100	199	stimuli\nonmovNat\rock\nmn_rock04.jpg            	1	3	1	nmn_rock04.jpg       	nonmovNat	5	rock      	30	rock04      	303	not_alive	0	still	0	natural 	1	n	0	0    	 	0.0	0	137.983083700001	138.0829856	0.0999018999991676
105101	100	200	stimuli\animals\dolphin\animal_dolphin04.jpg     	1	3	1	animal_dolphin04.jpg 	animals  	0	dolphin   	12	dolphin04   	123	alive    	1	moves	1	natural 	1	n	0	0    	 	0.0	0	138.133056100001	138.2329814	0.0999252999990858
105251	100	201	stimuli\plant\grass\plant_grass08.jpg            	1	3	1	plant_grass08.jpg    	plant    	6	grass     	17	grass08     	177	alive    	1	still	0	natural 	1	n	0	0    	 	0.0	0	138.28306750000002	138.382978200001	0.0999107000006915
105401	100	202	stimuli\nonmovNat\shell\nmn_shell06.jpg          	1	3	1	nmn_shell06.jpg      	nonmovNat	5	shell     	32	shell06     	325	not_alive	0	still	0	natural 	1	n	0	0    	 	0.0	0	138.433045400001	138.532984000001	0.0999386000003141
105551	100	203	stimuli\nonmovArt\lock\nma_lock04.jpg            	1	3	1	nma_lock04.jpg       	nonmovArt	4	lock      	24	lock04      	243	not_alive	0	still	0	artefact	0	n	0	0    	 	0.0	0	138.583081800001	138.6829844	0.0999025999990408
105701	100	204	stimuli\nonmovNat\rock\nmn_rock08.jpg            	1	3	1	nmn_rock08.jpg       	nonmovNat	5	rock      	30	rock08      	307	not_alive	0	still	0	natural 	1	n	0	0    	 	0.0	0	138.733056200001	138.832961100001	0.0999049000001832
105851	100	205	stimuli\nonmovNat\shell\nmn_shell03.jpg          	1	3	1	nmn_shell03.jpg      	nonmovNat	5	shell     	32	shell03     	322	not_alive	0	still	0	natural 	1	n	0	0    	 	0.0	0	138.88307959999997	138.982923900001	0.0998443000007682
106001	100	206	stimuli\movNat\hotspring\mn_hotspring09.jpg      	1	3	1	mn_hotspring09.jpg   	movNat   	3	hotspring 	21	hotspring09 	218	not_alive	0	moves	1	natural 	1	n	0	0    	 	0.0	0	139.033081200001	139.133041000001	0.0999597999998513
106151	100	207	stimuli\plant2\palmtree\plant_palmtree08.jpg     	1	3	1	plant_palmtree08.jpg 	plant2   	7	palmtree  	27	palmtree08  	277	alive    	1	still	0	natural 	1	n	0	0    	 	0.0	0	139.1830558	139.28296220000098	0.09990640000069098
106301	100	208	stimuli\animals\eagle\animal_eagle05.jpg         	1	3	1	animal_eagle05.jpg   	animals  	0	eagle     	13	eagle05     	134	alive    	1	moves	1	natural 	1	n	0	0    	 	0.0	0	139.3330642	139.432972100001	0.0999079000011988
106451	100	209	stimuli\plant2\fern\plant_fern06.jpg             	1	3	1	plant_fern06.jpg     	plant2   	7	fern      	14	fern06      	145	alive    	1	still	0	natural 	1	n	0	0    	 	0.0	0	139.48306090000003	139.582973100001	0.0999122000011993
106601	100	210	stimuli\nonmovArt\clothespeg\nma_clothespeg06.jpg	1	3	1	nma_clothespeg06.jpg 	nonmovArt	4	clothespeg	8	clothespeg06	85	not_alive	0	still	0	artefact	0	n	0	0    	 	0.0	0	139.6330629	139.732966	0.0999030999992101
106751	100	211	stimuli\plant2\palmtree\plant_palmtree07.jpg     	1	3	1	plant_palmtree07.jpg 	plant2   	7	palmtree  	27	palmtree07  	276	alive    	1	still	0	natural 	1	n	1	0    	 	0.0	0	139.78306980000002	139.882966000001	0.0998962000012397
106901	100	212	stimuli\plant\flower\plant_flower04.jpg          	1	3	1	plant_flower04.jpg   	plant    	6	flower    	16	flower04    	163	alive    	1	still	0	natural 	1	n	0	0    	 	0.0	0	139.9330563	140.03295880000002	0.0999025000000983
107051	100	213	stimuli\nonmovNat\rock\nmn_rock04.jpg            	1	3	1	nmn_rock04.jpg       	nonmovNat	5	rock      	30	rock04      	303	not_alive	0	still	0	natural 	1	n	0	1    	f	0.391981300001135	1	140.0830553	140.18296909999998	0.0999138000006496
107201	100	214	stimuli\nonmovArt\clothespeg\nma_clothespeg02.jpg	1	3	1	nma_clothespeg02.jpg 	nonmovArt	4	clothespeg	8	clothespeg02	81	not_alive	0	still	0	artefact	0	n	0	0    	 	0.0	0	140.2330576	140.33298059999998	0.0999229999997624
107351	100	215	stimuli\plant\vine\plant_vine05.jpg              	1	3	1	plant_vine05.jpg     	plant    	6	vine      	36	vine05      	364	alive    	1	still	0	natural 	1	n	0	0    	 	0.0	0	140.383059100001	140.48296530000002	0.0999061999991681
107501	100	216	stimuli\movNat\hotspring\mn_hotspring09.jpg      	1	3	1	mn_hotspring09.jpg   	movNat   	3	hotspring 	21	hotspring09 	218	not_alive	0	moves	1	natural 	1	n	0	0    	 	0.0	0	140.533051800001	140.632956700001	0.0999049000001832
107651	100	217	stimuli\nonmovArt\mug\nma_mug02.jpg              	1	3	1	nma_mug02.jpg        	nonmovArt	4	mug       	26	mug02       	261	not_alive	0	still	0	artefact	0	n	0	0    	 	0.0	0	140.683057800001	140.78297780000003	0.0999199999987468
107801	100	218	stimuli\nonmovArt\bench\nma_bench06.jpg          	1	3	1	nma_bench06.jpg      	nonmovArt	4	bench     	1	bench06     	15	not_alive	0	still	0	artefact	0	n	0	0    	 	0.0	0	140.833146500001	140.9329853	0.0998387999989063
107951	100	219	stimuli\plant2\fern\plant_fern03.jpg             	1	3	1	plant_fern03.jpg     	plant2   	7	fern      	14	fern03      	142	alive    	1	still	0	natural 	1	n	0	0    	 	0.0	0	140.983043100001	141.0829524	0.0999092999991262
108101	100	220	stimuli\animals2\lemur\animal_lemur05.jpg        	1	3	1	animal_lemur05.jpg   	animals2 	1	lemur     	23	lemur05     	234	alive    	1	moves	1	natural 	1	n	0	0    	 	0.0	0	141.13305640000002	141.232944200001	0.0998878000009426
108251	100	221	stimuli\nonmovNat\cliff\nmn_cliff07.jpg          	1	3	1	nmn_cliff07.jpg      	nonmovNat	5	cliff     	7	cliff07     	76	not_alive	0	still	0	natural 	1	n	0	0    	 	0.0	0	141.28303689999998	141.3829589	0.0999219999994238
108401	100	222	stimuli\nonmovArt\clothespeg\nma_clothespeg10.jpg	1	3	1	nma_clothespeg10.jpg 	nonmovArt	4	clothespeg	8	clothespeg10	89	not_alive	0	still	0	artefact	0	n	0	0    	 	0.0	0	141.4330371	141.53293530000002	0.0998982000000978
108551	100	223	stimuli\nonmovNat\crystal\nmn_crystal02.jpg      	1	3	1	nmn_crystal02.jpg    	nonmovNat	5	crystal   	10	crystal02   	101	not_alive	0	still	0	natural 	1	n	0	0    	 	0.0	0	141.583040200001	141.68293500000098	0.0998947999996744
108701	100	224	stimuli\animals\dolphin\animal_dolphin03.jpg     	1	3	1	animal_dolphin03.jpg 	animals  	0	dolphin   	12	dolphin03   	122	alive    	1	moves	1	natural 	1	n	0	0    	 	0.0	0	141.7330499	141.8329397	0.0998897999998007
108851	100	225	stimuli\plant\tree\plant_tree09.jpg              	1	3	1	plant_tree09.jpg     	plant    	6	tree      	35	tree09      	358	alive    	1	still	0	natural 	1	n	0	0    	 	0.0	0	141.883029500001	141.98295149999998	0.0999219999994238
109001	100	226	stimuli\plant2\moss\plant_moss09.jpg             	1	3	1	plant_moss09.jpg     	plant2   	7	moss      	25	moss09      	258	alive    	1	still	0	natural 	1	n	0	0    	 	0.0	0	142.03304350000002	142.132981800001	0.0999383000016678
109151	100	227	stimuli\animals2\tiger\animal_tiger07.jpg        	1	3	1	animal_tiger07.jpg   	animals2 	1	tiger     	33	tiger07     	336	alive    	1	moves	1	natural 	1	n	0	0    	 	0.0	0	142.183014600001	142.2829341	0.0999194999985775
109301	100	228	stimuli\nonmovArt\bench\nma_bench05.jpg          	1	3	1	nma_bench05.jpg      	nonmovArt	4	bench     	1	bench05     	14	not_alive	0	still	0	artefact	0	n	0	0    	 	0.0	0	142.33303800000098	142.432943200001	0.0999052000006486
109451	100	229	stimuli\movArt\boat\ma_boat08.jpg                	1	3	1	ma_boat08.jpg        	movArt   	2	boat      	2	boat08      	27	not_alive	0	moves	1	artefact	0	n	0	0    	 	0.0	0	142.48302959999998	142.582948700001	0.0999191000009886
109601	100	230	stimuli\movNat\fire\mn_fire03.jpg                	1	3	1	mn_fire03.jpg        	movNat   	3	fire      	15	fire03      	152	not_alive	0	moves	1	natural 	1	n	0	0    	 	0.0	0	142.63310369999996	142.732940600001	0.0998369000008096
109751	100	231	stimuli\movNat\waves\mn_waves05.jpg              	1	3	1	mn_waves05.jpg       	movNat   	3	waves     	38	waves05     	384	not_alive	0	moves	1	natural 	1	n	0	0    	 	0.0	0	142.783030500001	142.882923900001	0.09989339999992801
109901	100	232	stimuli\plant\flower\plant_flower02.jpg          	1	3	1	plant_flower02.jpg   	plant    	6	flower    	16	flower02    	161	alive    	1	still	0	natural 	1	n	0	0    	 	0.0	0	142.933011900001	143.03293200000002	0.0999200999995082
110051	100	233	stimuli\animals\eagle\animal_eagle10.jpg         	1	3	1	animal_eagle10.jpg   	animals  	0	eagle     	13	eagle10     	139	alive    	1	moves	1	natural 	1	n	0	0    	 	0.0	0	143.083019	143.182921400001	0.0999024000011559
110201	100	234	stimuli\animals\dog\animal_dog03.jpg             	1	3	1	animal_dog03.jpg     	animals  	0	dog       	11	dog03       	112	alive    	1	moves	1	natural 	1	n	0	0    	 	0.0	0	143.233010600001	143.332932000001	0.0999214000003121
110351	100	235	stimuli\plant2\clover\plant_clover08.jpg         	1	3	1	plant_clover08.jpg   	plant2   	7	clover    	9	clover08    	97	alive    	1	still	0	natural 	1	n	0	0    	 	0.0	0	143.3830041	143.482919300001	0.099915200000396
110501	100	236	stimuli\movArt\car\ma_car08.jpg                  	1	3	1	ma_car08.jpg         	movArt   	2	car       	5	car08       	57	not_alive	0	moves	1	artefact	0	n	0	0    	 	0.0	0	143.533015500001	143.632924900001	0.0999093999998876
110651	100	237	stimuli\movArt\car\ma_car02.jpg                  	1	3	1	ma_car02.jpg         	movArt   	2	car       	5	car02       	51	not_alive	0	moves	1	artefact	0	n	0	0    	 	0.0	0	143.683031800001	143.782922100001	0.09989029999997
110801	100	238	stimuli\animals\dolphin\animal_dolphin10.jpg     	1	3	1	animal_dolphin10.jpg 	animals  	0	dolphin   	12	dolphin10   	129	alive    	1	moves	1	natural 	1	n	0	0    	 	0.0	0	143.8330339	143.9329418	0.0999078999993798
110951	100	239	stimuli\animals2\whale\animal_whale02.jpg        	1	3	1	animal_whale02.jpg   	animals2 	1	whale     	39	whale02     	391	alive    	1	moves	1	natural 	1	n	0	1    	f	0.0	0	143.9830224	144.082937700001	0.0999153000011574
123383	100	240	stimuli\plant2\fern\plant_fern10.jpg             	1	4	1	plant_fern10.jpg     	plant2   	7	fern      	14	fern10      	149	alive    	1	still	0	natural 	1	n	0	0    	 	0.0	0	156.415383700001	156.5153673	0.0999835999991774
123533	100	241	stimuli\animals2\whale\animal_whale02.jpg        	1	4	1	animal_whale02.jpg   	animals2 	1	whale     	39	whale02     	391	alive    	1	moves	1	natural 	1	n	0	0    	 	0.0	0	156.565380100001	156.6653678	0.099987699999474
123683	100	242	stimuli\animals2\tiger\animal_tiger02.jpg        	1	4	1	animal_tiger02.jpg   	animals2 	1	tiger     	33	tiger02     	331	alive    	1	moves	1	natural 	1	n	0	0    	 	0.0	0	156.71537890000002	156.8153704	0.0999914999993052
123833	100	243	stimuli\movArt\train\ma_train01.jpg              	1	4	1	ma_train01.jpg       	movArt   	2	train     	34	train01     	340	not_alive	0	moves	1	artefact	0	n	0	0    	 	0.0	0	156.8653758	156.96536560000098	0.0999898000009125
123983	100	244	stimuli\movArt\boat\ma_boat05.jpg                	1	4	1	ma_boat05.jpg        	movArt   	2	boat      	2	boat05      	24	not_alive	0	moves	1	artefact	0	n	0	0    	 	0.0	0	157.01537390000001	157.1153626	0.0999886999998125
124133	100	245	stimuli\animals\dog\animal_dog02.jpg             	1	4	1	animal_dog02.jpg     	animals  	0	dog       	11	dog02       	111	alive    	1	moves	1	natural 	1	n	0	0    	 	0.0	0	157.16537209999998	157.26536090000099	0.0999888000005739
124283	100	246	stimuli\animals2\pigeon\animal_pigeon06.jpg      	1	4	1	animal_pigeon06.jpg  	animals2 	1	pigeon    	28	pigeon06    	285	alive    	1	moves	1	natural 	1	n	0	0    	 	0.0	0	157.315371300001	157.4153608	0.0999894999986281
124433	100	247	stimuli\animals\horse\animal_horse06.jpg         	1	4	1	animal_horse06.jpg   	animals  	0	horse     	20	horse06     	205	alive    	1	moves	1	natural 	1	n	0	0    	 	0.0	0	157.46536930000002	157.565356700001	0.0999874000008276
124583	100	248	stimuli\movNat\hotspring\mn_hotspring05.jpg      	1	4	1	mn_hotspring05.jpg   	movNat   	3	hotspring 	21	hotspring05 	214	not_alive	0	moves	1	natural 	1	n	0	0    	 	0.0	0	157.615368800001	157.71535740000002	0.099988599999051
124733	100	249	stimuli\animals\dog\animal_dog02.jpg             	1	4	1	animal_dog02.jpg     	animals  	0	dog       	11	dog02       	111	alive    	1	moves	1	natural 	1	n	0	0    	 	0.0	0	157.7653656	157.8653572	0.0999916000000666
124883	100	250	stimuli\movNat\river\mn_river06.jpg              	1	4	1	mn_river06.jpg       	movNat   	3	river     	29	river06     	295	not_alive	0	moves	1	natural 	1	n	0	0    	 	0.0	0	157.915365000001	158.015384300001	0.100019299999985
125033	100	251	stimuli\nonmovNat\sand\nmn_sand03.jpg            	1	4	1	nmn_sand03.jpg       	nonmovNat	5	sand      	31	sand03      	312	not_alive	0	still	0	natural 	1	n	0	0    	 	0.0	0	158.06536640000002	158.16535269999997	0.0999862999997276
125183	100	252	stimuli\movArt\bus\ma_bus06.jpg                  	1	4	1	ma_bus06.jpg         	movArt   	2	bus       	3	bus06       	35	not_alive	0	moves	1	artefact	0	n	0	0    	 	0.0	0	158.21536030000098	158.315351900001	0.0999916000000666
125333	100	253	stimuli\nonmovNat\cliff\nmn_cliff06.jpg          	1	4	1	nmn_cliff06.jpg      	nonmovNat	5	cliff     	7	cliff06     	75	not_alive	0	still	0	natural 	1	n	0	0    	 	0.0	0	158.36535940000098	158.465351300001	0.09999190000053199
125483	100	254	stimuli\plant2\clover\plant_clover07.jpg         	1	4	1	plant_clover07.jpg   	plant2   	7	clover    	9	clover07    	96	alive    	1	still	0	natural 	1	n	0	0    	 	0.0	0	158.5153625	158.61534880000002	0.0999862999997276
125633	100	255	stimuli\nonmovArt\clothespeg\nma_clothespeg02.jpg	1	4	1	nma_clothespeg02.jpg 	nonmovArt	4	clothespeg	8	clothespeg02	81	not_alive	0	still	0	artefact	0	n	0	0    	 	0.0	0	158.6653582	158.76534640000003	0.0999881999996432
125783	100	256	stimuli\plant2\clover\plant_clover02.jpg         	1	4	1	plant_clover02.jpg   	plant2   	7	clover    	9	clover02    	91	alive    	1	still	0	natural 	1	n	0	0    	 	0.0	0	158.8153564	158.9153437	0.0999873000000661
125933	100	257	stimuli\movArt\car\ma_car08.jpg                  	1	4	1	ma_car08.jpg         	movArt   	2	car       	5	car08       	57	not_alive	0	moves	1	artefact	0	n	0	0    	 	0.0	0	158.965353	159.06534299999998	0.0999900000006164
126083	100	258	stimuli\movNat\river\mn_river03.jpg              	1	4	1	mn_river03.jpg       	movNat   	3	river     	29	river03     	292	not_alive	0	moves	1	natural 	1	n	0	0    	 	0.0	0	159.1153521	159.2153411	0.0999890000002778
126233	100	259	stimuli\plant2\moss\plant_moss01.jpg             	1	4	1	plant_moss01.jpg     	plant2   	7	moss      	25	moss01      	250	alive    	1	still	0	natural 	1	n	0	0    	 	0.0	0	159.2653512	159.3653421	0.0999909000001935
126383	100	260	stimuli\animals2\lemur\animal_lemur10.jpg        	1	4	1	animal_lemur10.jpg   	animals2 	1	lemur     	23	lemur10     	239	alive    	1	moves	1	natural 	1	n	0	0    	 	0.0	0	159.415351200001	159.515338700001	0.09998749999977
126533	100	261	stimuli\plant\tree\plant_tree04.jpg              	1	4	1	plant_tree04.jpg     	plant    	6	tree      	35	tree04      	353	alive    	1	still	0	natural 	1	n	0	0    	 	0.0	0	159.56534960000099	159.665336400001	0.0999867999998969
126683	100	262	stimuli\plant2\moss\plant_moss03.jpg             	1	4	1	plant_moss03.jpg     	plant2   	7	moss      	25	moss03      	252	alive    	1	still	0	natural 	1	n	0	0    	 	0.0	0	159.71536890000098	159.8153356	0.0999666999996407
126833	100	263	stimuli\animals\dolphin\animal_dolphin09.jpg     	1	4	1	animal_dolphin09.jpg 	animals  	0	dolphin   	12	dolphin09   	128	alive    	1	moves	1	natural 	1	n	0	0    	 	0.0	0	159.86534510000098	159.965335500001	0.0999904000000242
126983	100	264	stimuli\movNat\hotspring\mn_hotspring01.jpg      	1	4	1	mn_hotspring01.jpg   	movNat   	3	hotspring 	21	hotspring01 	210	not_alive	0	moves	1	natural 	1	n	0	0    	 	0.0	0	160.015343000001	160.115332900001	0.0999898999998549
127133	100	265	stimuli\movArt\train\ma_train09.jpg              	1	4	1	ma_train09.jpg       	movArt   	2	train     	34	train09     	348	not_alive	0	moves	1	artefact	0	n	0	0    	 	0.0	0	160.16534330000098	160.2653307	0.0999873999990086
127283	100	266	stimuli\nonmovArt\headphones\nma_headphones10.jpg	1	4	1	nma_headphones10.jpg 	nonmovArt	4	headphones	18	headphones10	189	not_alive	0	still	0	artefact	0	n	0	0    	 	0.0	0	160.3153449	160.41532880000003	0.0999838999996427
127433	100	267	stimuli\nonmovNat\shell\nmn_shell10.jpg          	1	4	1	nmn_shell10.jpg      	nonmovNat	5	shell     	32	shell10     	329	not_alive	0	still	0	natural 	1	n	0	0    	 	0.0	0	160.46533780000001	160.56532950000098	0.0999917000008281
127583	100	268	stimuli\movArt\bus\ma_bus09.jpg                  	1	4	1	ma_bus09.jpg         	movArt   	2	bus       	3	bus09       	38	not_alive	0	moves	1	artefact	0	n	0	0    	 	0.0	0	160.61533840000098	160.715327400001	0.0999890000002778
127733	100	269	stimuli\nonmovArt\mug\nma_mug04.jpg              	1	4	1	nma_mug04.jpg        	nonmovArt	4	mug       	26	mug04       	263	not_alive	0	still	0	artefact	0	n	0	0    	 	0.0	0	160.76533610000098	160.865324600001	0.0999885000001086
127883	100	270	stimuli\plant\flower\plant_flower08.jpg          	1	4	1	plant_flower08.jpg   	plant    	6	flower    	16	flower08    	167	alive    	1	still	0	natural 	1	n	0	0    	 	0.0	0	160.915335900001	161.01532410000098	0.0999881999996432
128033	100	271	stimuli\movArt\train\ma_train04.jpg              	1	4	1	ma_train04.jpg       	movArt   	2	train     	34	train04     	343	not_alive	0	moves	1	artefact	0	n	0	0    	 	0.0	0	161.0653332	161.165322000001	0.0999888000005739
128183	100	272	stimuli\nonmovArt\lock\nma_lock06.jpg            	1	4	1	nma_lock06.jpg       	nonmovArt	4	lock      	24	lock06      	245	not_alive	0	still	0	artefact	0	n	0	0    	 	0.0	0	161.21533200000002	161.31532090000098	0.0999889000013354
128333	100	273	stimuli\nonmovArt\headphones\nma_headphones06.jpg	1	4	1	nma_headphones06.jpg 	nonmovArt	4	headphones	18	headphones06	185	not_alive	0	still	0	artefact	0	n	0	0    	 	0.0	0	161.3653314	161.46531940000003	0.0999879999999393
128483	100	274	stimuli\animals\dog\animal_dog09.jpg             	1	4	1	animal_dog09.jpg     	animals  	0	dog       	11	dog09       	118	alive    	1	moves	1	natural 	1	n	0	0    	 	0.0	0	161.515330100001	161.615318600001	0.0999885000001086
128633	100	275	stimuli\plant2\lemontree\plant_lemontree02.jpg   	1	4	1	plant_lemontree02.jpg	plant2   	7	lemontree 	22	lemontree02 	221	alive    	1	still	0	natural 	1	n	0	0    	 	0.0	0	161.6653264	161.7653175	0.0999910999998974
128783	100	276	stimuli\movNat\waves\mn_waves01.jpg              	1	4	1	mn_waves01.jpg       	movNat   	3	waves     	38	waves01     	380	not_alive	0	moves	1	natural 	1	n	0	0    	 	0.0	0	161.815325900001	161.91531370000098	0.0999878000002354
128933	100	277	stimuli\animals\cat\animal_cat01.jpg             	1	4	1	animal_cat01.jpg     	animals  	0	cat       	6	cat01       	60	alive    	1	moves	1	natural 	1	n	0	0    	 	0.0	0	161.9653242	162.06531	0.0999857999995583
129083	100	278	stimuli\plant2\lemontree\plant_lemontree01.jpg   	1	4	1	plant_lemontree01.jpg	plant2   	7	lemontree 	22	lemontree01 	220	alive    	1	still	0	natural 	1	n	1	0    	 	0.0	0	162.115322400001	162.2153103	0.0999878999991779
129233	100	279	stimuli\plant2\fern\plant_fern05.jpg             	1	4	1	plant_fern05.jpg     	plant2   	7	fern      	14	fern05      	144	alive    	1	still	0	natural 	1	n	0	0    	 	0.0	0	162.26532030000098	162.3653139	0.0999935999989247
129383	100	280	stimuli\movArt\car\ma_car03.jpg                  	1	4	1	ma_car03.jpg         	movArt   	2	car       	5	car03       	52	not_alive	0	moves	1	artefact	0	n	0	1    	f	0.300184399999125	1	162.415321500001	162.515307200001	0.0999857000006159
129533	100	281	stimuli\movNat\waterfall\mn_waterfall02.jpg      	1	4	1	mn_waterfall02.jpg   	movNat   	3	waterfall 	37	waterfall02 	371	not_alive	0	moves	1	natural 	1	n	0	0    	 	0.0	0	162.565319200001	162.665307200001	0.0999879999999393
129683	100	282	stimuli\movArt\boat\ma_boat07.jpg                	1	4	1	ma_boat07.jpg        	movArt   	2	boat      	2	boat07      	26	not_alive	0	moves	1	artefact	0	n	1	0    	 	0.0	0	162.7153155	162.815304400001	0.0999889000013354
129833	100	283	stimuli\animals\cat\animal_cat05.jpg             	1	4	1	animal_cat05.jpg     	animals  	0	cat       	6	cat05       	64	alive    	1	moves	1	natural 	1	n	0	0    	 	0.0	0	162.865312900001	162.9653039	0.0999909999991359
129983	100	284	stimuli\nonmovNat\rock\nmn_rock05.jpg            	1	4	1	nmn_rock05.jpg       	nonmovNat	5	rock      	30	rock05      	304	not_alive	0	still	0	natural 	1	n	0	0    	 	0.0	0	163.0153142	163.115303	0.0999888000005739
130133	100	285	stimuli\plant\grass\plant_grass03.jpg            	1	4	1	plant_grass03.jpg    	plant    	6	grass     	17	grass03     	172	alive    	1	still	0	natural 	1	n	0	0    	 	0.0	0	163.16531220000098	163.2653001	0.0999878999991779
130283	100	286	stimuli\nonmovNat\shell\nmn_shell01.jpg          	1	4	1	nmn_shell01.jpg      	nonmovNat	5	shell     	32	shell01     	320	not_alive	0	still	0	natural 	1	n	0	1    	f	0.6919825000004489	1	163.31531130000099	163.4153004	0.0999890999992203
130433	100	287	stimuli\movNat\waterfall\mn_waterfall02.jpg      	1	4	1	mn_waterfall02.jpg   	movNat   	3	waterfall 	37	waterfall02 	371	not_alive	0	moves	1	natural 	1	n	0	0    	 	0.0	0	163.465310400001	163.56530180000098	0.0999914000003627
130583	100	288	stimuli\plant2\palmtree\plant_palmtree04.jpg     	1	4	1	plant_palmtree04.jpg 	plant2   	7	palmtree  	27	palmtree04  	273	alive    	1	still	0	natural 	1	n	0	0    	 	0.0	0	163.615306200001	163.7152959	0.09998969999833199
130733	100	289	stimuli\plant2\clover\plant_clover04.jpg         	1	4	1	plant_clover04.jpg   	plant2   	7	clover    	9	clover04    	93	alive    	1	still	0	natural 	1	n	0	0    	 	0.0	0	163.76530730000002	163.86530919999998	0.100001900000279
130883	100	290	stimuli\nonmovArt\bench\nma_bench09.jpg          	1	4	1	nma_bench09.jpg      	nonmovArt	4	bench     	1	bench09     	18	not_alive	0	still	0	artefact	0	n	0	0    	 	0.0	0	163.91529509999998	164.0152956	0.100000500000533
131033	100	291	stimuli\nonmovArt\bench\nma_bench04.jpg          	1	4	1	nma_bench04.jpg      	nonmovArt	4	bench     	1	bench04     	13	not_alive	0	still	0	artefact	0	n	0	0    	 	0.0	0	164.06530320000098	164.165248400001	0.0999451999996381
131183	100	292	stimuli\animals\dolphin\animal_dolphin08.jpg     	1	4	1	animal_dolphin08.jpg 	animals  	0	dolphin   	12	dolphin08   	127	alive    	1	moves	1	natural 	1	n	0	0    	 	0.0	0	164.2152874	164.31528170000098	0.0999943000006169
131333	100	293	stimuli\nonmovNat\sand\nmn_sand10.jpg            	1	4	1	nmn_sand10.jpg       	nonmovNat	5	sand      	31	sand10      	319	not_alive	0	still	0	natural 	1	n	0	0    	 	0.0	0	164.3652927	164.4652757	0.0999830000000656
131483	100	294	stimuli\nonmovArt\bench\nma_bench06.jpg          	1	4	1	nma_bench06.jpg      	nonmovArt	4	bench     	1	bench06     	15	not_alive	0	still	0	artefact	0	n	0	0    	 	0.0	0	164.515289700001	164.6152724	0.0999826999996003
131633	100	295	stimuli\nonmovArt\lock\nma_lock08.jpg            	1	4	1	nma_lock08.jpg       	nonmovArt	4	lock      	24	lock08      	247	not_alive	0	still	0	artefact	0	n	0	0    	 	0.0	0	164.665283100001	164.7652767	0.0999935999989247
131783	100	296	stimuli\movNat\waves\mn_waves06.jpg              	1	4	1	mn_waves06.jpg       	movNat   	3	waves     	38	waves06     	385	not_alive	0	moves	1	natural 	1	n	0	0    	 	0.0	0	164.8152861	164.915276	0.0999898999998549
131933	100	297	stimuli\movArt\helicopter\ma_helicopter04.jpg    	1	4	1	ma_helicopter04.jpg  	movArt   	2	helicopter	19	helicopter04	193	not_alive	0	moves	1	artefact	0	n	0	0    	 	0.0	0	164.965286000001	165.065267400001	0.0999814000006154
132083	100	298	stimuli\plant2\fern\plant_fern02.jpg             	1	4	1	plant_fern02.jpg     	plant2   	7	fern      	14	fern02      	141	alive    	1	still	0	natural 	1	n	0	0    	 	0.0	0	165.115283500001	165.215274	0.0999904999989667
132233	100	299	stimuli\animals\horse\animal_horse01.jpg         	1	4	1	animal_horse01.jpg   	animals  	0	horse     	20	horse01     	200	alive    	1	moves	1	natural 	1	n	1	0    	 	0.0	0	165.2652762	165.3652738	0.0999976000002789
132383	100	300	stimuli\movNat\fire\mn_fire03.jpg                	1	4	1	mn_fire03.jpg        	movNat   	3	fire      	15	fire03      	152	not_alive	0	moves	1	natural 	1	n	0	0    	 	0.0	0	165.4152804	165.51526900000098	0.09998860000087001
132533	100	301	stimuli\plant\cactus\plant_cactus10.jpg          	1	4	1	plant_cactus10.jpg   	plant    	6	cactus    	4	cactus10    	49	alive    	1	still	0	natural 	1	n	0	1    	f	0.391986800001178	1	165.5652794	165.665271900001	0.0999925000014627
132683	100	302	stimuli\nonmovNat\cliff\nmn_cliff06.jpg          	1	4	1	nmn_cliff06.jpg      	nonmovNat	5	cliff     	7	cliff06     	75	not_alive	0	still	0	natural 	1	n	0	0    	 	0.0	0	165.71529420000098	165.8152684	0.0999741999985417
132833	100	303	stimuli\movNat\fire\mn_fire05.jpg                	1	4	1	mn_fire05.jpg        	movNat   	3	fire      	15	fire05      	154	not_alive	0	moves	1	natural 	1	n	0	0    	 	0.0	0	165.8652767	165.96526630000002	0.0999895999993896
132983	100	304	stimuli\plant\grass\plant_grass05.jpg            	1	4	1	plant_grass05.jpg    	plant    	6	grass     	17	grass05     	174	alive    	1	still	0	natural 	1	n	0	0    	 	0.0	0	166.015276400001	166.1152642	0.0999877999984164
133133	100	305	stimuli\movNat\waves\mn_waves06.jpg              	1	4	1	mn_waves06.jpg       	movNat   	3	waves     	38	waves06     	385	not_alive	0	moves	1	natural 	1	n	0	0    	 	0.0	0	166.165274300001	166.26526189999998	0.0999875999987125
133283	100	306	stimuli\animals2\tiger\animal_tiger09.jpg        	1	4	1	animal_tiger09.jpg   	animals2 	1	tiger     	33	tiger09     	338	alive    	1	moves	1	natural 	1	n	1	0    	 	0.0	0	166.3152711	166.415259200001	0.0999881000007008
133433	100	307	stimuli\nonmovNat\rock\nmn_rock07.jpg            	1	4	1	nmn_rock07.jpg       	nonmovNat	5	rock      	30	rock07      	306	not_alive	0	still	0	natural 	1	n	0	0    	 	0.0	0	166.4652687	166.5652582	0.0999895000004471
133583	100	308	stimuli\plant2\palmtree\plant_palmtree03.jpg     	1	4	1	plant_palmtree03.jpg 	plant2   	7	palmtree  	27	palmtree03  	272	alive    	1	still	0	natural 	1	n	0	1    	f	0.400219499999366	1	166.6152635	166.71527369999998	0.100010199999815
133733	100	309	stimuli\animals2\whale\animal_whale06.jpg        	1	4	1	animal_whale06.jpg   	animals2 	1	whale     	39	whale06     	395	alive    	1	moves	1	natural 	1	n	0	0    	 	0.0	0	166.765262000001	166.8652509	0.0999888999995164
133883	100	310	stimuli\plant\vine\plant_vine07.jpg              	1	4	1	plant_vine07.jpg     	plant    	6	vine      	36	vine07      	366	alive    	1	still	0	natural 	1	n	0	0    	 	0.0	0	166.91525890000003	167.01525610000098	0.099997200000871
134033	100	311	stimuli\nonmovArt\clothespeg\nma_clothespeg05.jpg	1	4	1	nma_clothespeg05.jpg 	nonmovArt	4	clothespeg	8	clothespeg05	84	not_alive	0	still	0	artefact	0	n	0	0    	 	0.0	0	167.065258500001	167.1660417	0.100783199999569
134184	100	312	stimuli\movArt\helicopter\ma_helicopter05.jpg    	1	4	1	ma_helicopter05.jpg  	movArt   	2	helicopter	19	helicopter05	194	not_alive	0	moves	1	artefact	0	n	0	0    	 	0.0	0	167.216129800001	167.31607350000002	0.0999436999991303
134334	100	313	stimuli\nonmovNat\crystal\nmn_crystal10.jpg      	1	4	1	nmn_crystal10.jpg    	nonmovNat	5	crystal   	10	crystal10   	109	not_alive	0	still	0	natural 	1	n	0	0    	 	0.0	0	167.36616420000098	167.465996200001	0.0998319999998784
134484	100	314	stimuli\nonmovNat\cliff\nmn_cliff07.jpg          	1	4	1	nmn_cliff07.jpg      	nonmovNat	5	cliff     	7	cliff07     	76	not_alive	0	still	0	natural 	1	n	0	0    	 	0.0	0	167.5162225	167.6161679	0.099945399999342
134634	100	315	stimuli\movNat\river\mn_river07.jpg              	1	4	1	mn_river07.jpg       	movNat   	3	river     	29	river07     	296	not_alive	0	moves	1	natural 	1	n	0	0    	 	0.0	0	167.66612610000098	167.76604519999998	0.0999190999991697
134784	100	316	stimuli\plant\cactus\plant_cactus01.jpg          	1	4	1	plant_cactus01.jpg   	plant    	6	cactus    	4	cactus01    	40	alive    	1	still	0	natural 	1	n	0	0    	 	0.0	0	167.8161024	167.916026700001	0.0999243000005662
134934	100	317	stimuli\plant\tree\plant_tree05.jpg              	1	4	1	plant_tree05.jpg     	plant    	6	tree      	35	tree05      	354	alive    	1	still	0	natural 	1	n	0	0    	 	0.0	0	167.9661149	168.066017900001	0.0999030000002676
135084	100	318	stimuli\nonmovArt\clothespeg\nma_clothespeg09.jpg	1	4	1	nma_clothespeg09.jpg 	nonmovArt	4	clothespeg	8	clothespeg09	88	not_alive	0	still	0	artefact	0	n	0	0    	 	0.0	0	168.1161502	168.21605210000098	0.0999019000009866
135234	100	319	stimuli\plant\vine\plant_vine04.jpg              	1	4	1	plant_vine04.jpg     	plant    	6	vine      	36	vine04      	363	alive    	1	still	0	natural 	1	n	0	0    	 	0.0	0	168.2661322	168.366038100001	0.0999059000005218
149434	100	320	stimuli\animals\eagle\animal_eagle08.jpg         	1	5	1	animal_eagle08.jpg   	animals  	0	eagle     	13	eagle08     	137	alive    	1	moves	1	natural 	1	n	0	0    	 	0.0	0	182.465974800001	182.56587280000002	0.0998979999985749
149584	100	321	stimuli\movArt\car\ma_car03.jpg                  	1	5	1	ma_car03.jpg         	movArt   	2	car       	5	car03       	52	not_alive	0	moves	1	artefact	0	n	0	0    	 	0.0	0	182.6159592	182.715871500001	0.0999123000001418
149734	100	322	stimuli\movArt\helicopter\ma_helicopter06.jpg    	1	5	1	ma_helicopter06.jpg  	movArt   	2	helicopter	19	helicopter06	195	not_alive	0	moves	1	artefact	0	n	0	0    	 	0.0	0	182.76593	182.8658744	0.0999444000008225
149884	100	323	stimuli\nonmovNat\crystal\nmn_crystal06.jpg      	1	5	1	nmn_crystal06.jpg    	nonmovNat	5	crystal   	10	crystal06   	105	not_alive	0	still	0	natural 	1	n	0	0    	 	0.0	0	182.915951500001	183.015858700001	0.0999071999995067
150034	100	324	stimuli\animals2\bee\animal_bee02.jpg            	1	5	1	animal_bee02.jpg     	animals2 	1	bee       	0	bee02       	1	alive    	1	moves	1	natural 	1	n	0	0    	 	0.0	0	183.065960800001	183.1658625	0.0999016999994637
150184	100	325	stimuli\animals2\tiger\animal_tiger03.jpg        	1	5	1	animal_tiger03.jpg   	animals2 	1	tiger     	33	tiger03     	332	alive    	1	moves	1	natural 	1	n	0	0    	 	0.0	0	183.215950200001	183.3158191	0.0998688999989099
150334	100	326	stimuli\plant2\palmtree\plant_palmtree10.jpg     	1	5	1	plant_palmtree10.jpg 	plant2   	7	palmtree  	27	palmtree10  	279	alive    	1	still	0	natural 	1	n	0	0    	 	0.0	0	183.36595730000002	183.4658636	0.0999062999999296
150484	100	327	stimuli\animals\eagle\animal_eagle07.jpg         	1	5	1	animal_eagle07.jpg   	animals  	0	eagle     	13	eagle07     	136	alive    	1	moves	1	natural 	1	n	0	0    	 	0.0	0	183.515971000001	183.6158858	0.0999147999991692
150634	100	328	stimuli\nonmovNat\sand\nmn_sand03.jpg            	1	5	1	nmn_sand03.jpg       	nonmovNat	5	sand      	31	sand03      	312	not_alive	0	still	0	natural 	1	n	0	0    	 	0.0	0	183.6659559	183.7658438	0.0998878999998851
150784	100	329	stimuli\movArt\bus\ma_bus08.jpg                  	1	5	1	ma_bus08.jpg         	movArt   	2	bus       	3	bus08       	37	not_alive	0	moves	1	artefact	0	n	0	0    	 	0.0	0	183.8159595	183.9158639	0.09990440000001401
150934	100	330	stimuli\movArt\boat\ma_boat06.jpg                	1	5	1	ma_boat06.jpg        	movArt   	2	boat      	2	boat06      	25	not_alive	0	moves	1	artefact	0	n	0	0    	 	0.0	0	183.965930100001	184.0658494	0.0999192999988736
151084	100	331	stimuli\plant\grass\plant_grass03.jpg            	1	5	1	plant_grass03.jpg    	plant    	6	grass     	17	grass03     	172	alive    	1	still	0	natural 	1	n	0	0    	 	0.0	0	184.116017800001	184.215871500001	0.0998536999995849
151234	100	332	stimuli\movNat\hotspring\mn_hotspring07.jpg      	1	5	1	mn_hotspring07.jpg   	movNat   	3	hotspring 	21	hotspring07 	216	not_alive	0	moves	1	natural 	1	n	0	0    	 	0.0	0	184.2659449	184.365856600001	0.0999117000010301
151384	100	333	stimuli\plant\flower\plant_flower05.jpg          	1	5	1	plant_flower05.jpg   	plant    	6	flower    	16	flower05    	164	alive    	1	still	0	natural 	1	n	0	0    	 	0.0	0	184.4159138	184.51584119999998	0.0999274000005243
151534	100	334	stimuli\animals2\pigeon\animal_pigeon04.jpg      	1	5	1	animal_pigeon04.jpg  	animals2 	1	pigeon    	28	pigeon04    	283	alive    	1	moves	1	natural 	1	n	0	0    	 	0.0	0	184.5659282	184.6658412	0.09991300000001499
151684	100	335	stimuli\animals2\bee\animal_bee08.jpg            	1	5	1	animal_bee08.jpg     	animals2 	1	bee       	0	bee08       	7	alive    	1	moves	1	natural 	1	n	0	0    	 	0.0	0	184.71594240000002	184.815844300001	0.0999019000009866
151834	100	336	stimuli\nonmovNat\rock\nmn_rock06.jpg            	1	5	1	nmn_rock06.jpg       	nonmovNat	5	rock      	30	rock06      	305	not_alive	0	still	0	natural 	1	n	1	0    	 	0.0	0	184.8659181	184.9658483	0.09993020000001701
151984	100	337	stimuli\movNat\waterfall\mn_waterfall06.jpg      	1	5	1	mn_waterfall06.jpg   	movNat   	3	waterfall 	37	waterfall06 	375	not_alive	0	moves	1	natural 	1	n	0	0    	 	0.0	0	185.015909200001	185.11584100000098	0.0999317999994673
152134	100	338	stimuli\nonmovNat\shell\nmn_shell04.jpg          	1	5	1	nmn_shell04.jpg      	nonmovNat	5	shell     	32	shell04     	323	not_alive	0	still	0	natural 	1	n	0	1    	f	0.392013900000166	1	185.1659433	185.2658455	0.099902199999633
152284	100	339	stimuli\plant\tree\plant_tree04.jpg              	1	5	1	plant_tree04.jpg     	plant    	6	tree      	35	tree04      	353	alive    	1	still	0	natural 	1	n	0	0    	 	0.0	0	185.3160064	185.4158491	0.099842699999499
152434	100	340	stimuli\animals2\pigeon\animal_pigeon09.jpg      	1	5	1	animal_pigeon09.jpg  	animals2 	1	pigeon    	28	pigeon09    	288	alive    	1	moves	1	natural 	1	n	0	0    	 	0.0	0	185.46593049999998	185.565837600001	0.0999071000005642
152584	100	341	stimuli\plant2\lemontree\plant_lemontree09.jpg   	1	5	1	plant_lemontree09.jpg	plant2   	7	lemontree 	22	lemontree09 	228	alive    	1	still	0	natural 	1	n	0	0    	 	0.0	0	185.61591960000098	185.715834800001	0.099915200000396
152734	100	342	stimuli\plant\vine\plant_vine05.jpg              	1	5	1	plant_vine05.jpg     	plant    	6	vine      	36	vine05      	364	alive    	1	still	0	natural 	1	n	0	0    	 	0.0	0	185.765924700001	185.86582230000002	0.0998975999991671
152884	100	343	stimuli\animals\cat\animal_cat08.jpg             	1	5	1	animal_cat08.jpg     	animals  	0	cat       	6	cat08       	67	alive    	1	moves	1	natural 	1	n	1	0    	 	0.0	0	185.91591590000098	186.0158465	0.0999305999994248
153034	100	344	stimuli\nonmovArt\lock\nma_lock01.jpg            	1	5	1	nma_lock01.jpg       	nonmovArt	4	lock      	24	lock01      	240	not_alive	0	still	0	artefact	0	n	0	0    	 	0.0	0	186.0659259	186.16583	0.0999040999995486
153184	100	345	stimuli\nonmovArt\mug\nma_mug05.jpg              	1	5	1	nma_mug05.jpg        	nonmovArt	4	mug       	26	mug05       	264	not_alive	0	still	0	artefact	0	n	0	1    	f	0.39199430000007895	1	186.215921000001	186.315831400001	0.0999104000002262
153334	100	346	stimuli\animals\eagle\animal_eagle09.jpg         	1	5	1	animal_eagle09.jpg   	animals  	0	eagle     	13	eagle09     	138	alive    	1	moves	1	natural 	1	n	0	0    	 	0.0	0	186.36591770000098	186.465826900001	0.0999092000001837
153484	100	347	stimuli\animals2\lemur\animal_lemur10.jpg        	1	5	1	animal_lemur10.jpg   	animals2 	1	lemur     	23	lemur10     	239	alive    	1	moves	1	natural 	1	n	0	0    	 	0.0	0	186.5159367	186.61582720000098	0.0998905000014929
153634	100	348	stimuli\nonmovArt\mug\nma_mug08.jpg              	1	5	1	nma_mug08.jpg        	nonmovArt	4	mug       	26	mug08       	267	not_alive	0	still	0	artefact	0	n	0	0    	 	0.0	0	186.66591020000098	186.7658273	0.0999170999984926
153784	100	349	stimuli\plant2\moss\plant_moss01.jpg             	1	5	1	plant_moss01.jpg     	plant2   	7	moss      	25	moss01      	250	alive    	1	still	0	natural 	1	n	0	0    	 	0.0	0	186.81591310000098	186.9158205	0.0999073999992106
153934	100	350	stimuli\nonmovArt\headphones\nma_headphones02.jpg	1	5	1	nma_headphones02.jpg 	nonmovArt	4	headphones	18	headphones02	181	not_alive	0	still	0	artefact	0	n	0	0    	 	0.0	0	186.9659245	187.0658215	0.0998970000000554
154084	100	351	stimuli\plant\flower\plant_flower04.jpg          	1	5	1	plant_flower04.jpg   	plant    	6	flower    	16	flower04    	163	alive    	1	still	0	natural 	1	n	0	0    	 	0.0	0	187.1159819	187.2158346	0.0998526999992464
154234	100	352	stimuli\animals2\bee\animal_bee03.jpg            	1	5	1	animal_bee03.jpg     	animals2 	1	bee       	0	bee03       	2	alive    	1	moves	1	natural 	1	n	0	0    	 	0.0	0	187.265910400001	187.3658142	0.0999037999990832
154384	100	353	stimuli\animals\dolphin\animal_dolphin03.jpg     	1	5	1	animal_dolphin03.jpg 	animals  	0	dolphin   	12	dolphin03   	122	alive    	1	moves	1	natural 	1	n	0	0    	 	0.0	0	187.41590060000098	187.515806000001	0.0999054000003525
154534	100	354	stimuli\plant\cactus\plant_cactus01.jpg          	1	5	1	plant_cactus01.jpg   	plant    	6	cactus    	4	cactus01    	40	alive    	1	still	0	natural 	1	n	0	0    	 	0.0	0	187.565901400001	187.6658272	0.0999257999992551
154684	100	355	stimuli\animals2\lemur\animal_lemur07.jpg        	1	5	1	animal_lemur07.jpg   	animals2 	1	lemur     	23	lemur07     	236	alive    	1	moves	1	natural 	1	n	0	0    	 	0.0	0	187.7159326	187.8158231	0.0998904999996739
154834	100	356	stimuli\animals\horse\animal_horse07.jpg         	1	5	1	animal_horse07.jpg   	animals  	0	horse     	20	horse07     	206	alive    	1	moves	1	natural 	1	n	0	0    	 	0.0	0	187.865892400001	187.9658107	0.099918299998535
154984	100	357	stimuli\nonmovNat\crystal\nmn_crystal03.jpg      	1	5	1	nmn_crystal03.jpg    	nonmovNat	5	crystal   	10	crystal03   	102	not_alive	0	still	0	natural 	1	n	0	0    	 	0.0	0	188.015871200001	188.115805200001	0.0999339999998483
155134	100	358	stimuli\animals2\whale\animal_whale07.jpg        	1	5	1	animal_whale07.jpg   	animals2 	1	whale     	39	whale07     	396	alive    	1	moves	1	natural 	1	n	0	0    	 	0.0	0	188.1659033	188.26580780000003	0.0999045000007754
155284	100	359	stimuli\movNat\fire\mn_fire09.jpg                	1	5	1	mn_fire09.jpg        	movNat   	3	fire      	15	fire09      	158	not_alive	0	moves	1	natural 	1	n	0	0    	 	0.0	0	188.315888000001	188.41580530000098	0.0999173000000155
155434	100	360	stimuli\plant2\palmtree\plant_palmtree06.jpg     	1	5	1	plant_palmtree06.jpg 	plant2   	7	palmtree  	27	palmtree06  	275	alive    	1	still	0	natural 	1	n	0	0    	 	0.0	0	188.465893300001	188.5658107	0.099917399998958
155584	100	361	stimuli\animals\horse\animal_horse02.jpg         	1	5	1	animal_horse02.jpg   	animals  	0	horse     	20	horse02     	201	alive    	1	moves	1	natural 	1	n	0	0    	 	0.0	0	188.615917000001	188.71577630000002	0.0998592999985703
155734	100	362	stimuli\movArt\car\ma_car09.jpg                  	1	5	1	ma_car09.jpg         	movArt   	2	car       	5	car09       	58	not_alive	0	moves	1	artefact	0	n	0	0    	 	0.0	0	188.76588869999998	188.865842200001	0.0999535000009928
155884	100	363	stimuli\animals\dolphin\animal_dolphin04.jpg     	1	5	1	animal_dolphin04.jpg 	animals  	0	dolphin   	12	dolphin04   	123	alive    	1	moves	1	natural 	1	n	0	0    	 	0.0	0	188.9160225	189.015802	0.0997795000002952
156034	100	364	stimuli\nonmovNat\rock\nmn_rock08.jpg            	1	5	1	nmn_rock08.jpg       	nonmovNat	5	rock      	30	rock08      	307	not_alive	0	still	0	natural 	1	n	0	0    	 	0.0	0	189.06586950000002	189.165819400001	0.0999499000008654
156184	100	365	stimuli\movNat\river\mn_river03.jpg              	1	5	1	mn_river03.jpg       	movNat   	3	river     	29	river03     	292	not_alive	0	moves	1	natural 	1	n	0	0    	 	0.0	0	189.2158999	189.3158033	0.0999033999996754
156334	100	366	stimuli\movNat\waves\mn_waves07.jpg              	1	5	1	mn_waves07.jpg       	movNat   	3	waves     	38	waves07     	386	not_alive	0	moves	1	natural 	1	n	0	0    	 	0.0	0	189.365860400001	189.465814500001	0.0999541000001045
156484	100	367	stimuli\plant2\fern\plant_fern01.jpg             	1	5	1	plant_fern01.jpg     	plant2   	7	fern      	14	fern01      	140	alive    	1	still	0	natural 	1	n	0	0    	 	0.0	0	189.51589050000098	189.6158034	0.0999128999992535
156634	100	368	stimuli\nonmovArt\headphones\nma_headphones07.jpg	1	5	1	nma_headphones07.jpg 	nonmovArt	4	headphones	18	headphones07	186	not_alive	0	still	0	artefact	0	n	0	0    	 	0.0	0	189.665885100001	189.7657915	0.099906399998872
156784	100	369	stimuli\plant\cactus\plant_cactus02.jpg          	1	5	1	plant_cactus02.jpg   	plant    	6	cactus    	4	cactus02    	41	alive    	1	still	0	natural 	1	n	0	0    	 	0.0	0	189.815884	189.9157968	0.0999128000003111
156934	100	370	stimuli\nonmovArt\mug\nma_mug06.jpg              	1	5	1	nma_mug06.jpg        	nonmovArt	4	mug       	26	mug06       	265	not_alive	0	still	0	artefact	0	n	0	0    	 	0.0	0	189.965900500001	190.06580119999998	0.0999006999991252
157084	100	371	stimuli\plant\tree\plant_tree07.jpg              	1	5	1	plant_tree07.jpg     	plant    	6	tree      	35	tree07      	356	alive    	1	still	0	natural 	1	n	0	0    	 	0.0	0	190.115905000001	190.2157699	0.0998648999993747
157234	100	372	stimuli\nonmovNat\cliff\nmn_cliff07.jpg          	1	5	1	nmn_cliff07.jpg      	nonmovNat	5	cliff     	7	cliff07     	76	not_alive	0	still	0	natural 	1	n	0	0    	 	0.0	0	190.265890100001	190.365805700001	0.0999155999998038
157384	100	373	stimuli\plant\flower\plant_flower04.jpg          	1	5	1	plant_flower04.jpg   	plant    	6	flower    	16	flower04    	163	alive    	1	still	0	natural 	1	n	0	0    	 	0.0	0	190.4158862	190.51580819999998	0.0999219999994238
157534	100	374	stimuli\nonmovNat\sand\nmn_sand06.jpg            	1	5	1	nmn_sand06.jpg       	nonmovNat	5	sand      	31	sand06      	315	not_alive	0	still	0	natural 	1	n	0	0    	 	0.0	0	190.5658733	190.66585890000002	0.0999855999998544
157684	100	375	stimuli\plant2\palmtree\plant_palmtree06.jpg     	1	5	1	plant_palmtree06.jpg 	plant2   	7	palmtree  	27	palmtree06  	275	alive    	1	still	0	natural 	1	n	0	0    	 	0.0	0	190.71609909999998	190.81579530000099	0.0996962000008352
157834	100	376	stimuli\nonmovNat\shell\nmn_shell08.jpg          	1	5	1	nmn_shell08.jpg      	nonmovNat	5	shell     	32	shell08     	327	not_alive	0	still	0	natural 	1	n	0	0    	 	0.0	0	190.86587169999999	190.965789600001	0.0999179000009462
157984	100	377	stimuli\movNat\waves\mn_waves02.jpg              	1	5	1	mn_waves02.jpg       	movNat   	3	waves     	38	waves02     	381	not_alive	0	moves	1	natural 	1	n	0	0    	 	0.0	0	191.01587990000002	191.1157907	0.09991079999963401
158134	100	378	stimuli\animals2\tiger\animal_tiger01.jpg        	1	5	1	animal_tiger01.jpg   	animals2 	1	tiger     	33	tiger01     	330	alive    	1	moves	1	natural 	1	n	0	0    	 	0.0	0	191.165874100001	191.2657755	0.0999013999989984
158284	100	379	stimuli\animals\eagle\animal_eagle04.jpg         	1	5	1	animal_eagle04.jpg   	animals  	0	eagle     	13	eagle04     	133	alive    	1	moves	1	natural 	1	n	0	0    	 	0.0	0	191.3158793	191.415786	0.0999066999993374
158434	100	380	stimuli\movArt\helicopter\ma_helicopter05.jpg    	1	5	1	ma_helicopter05.jpg  	movArt   	2	helicopter	19	helicopter05	194	not_alive	0	moves	1	artefact	0	n	0	0    	 	0.0	0	191.465878000001	191.56577050000098	0.09989250000035099
158584	100	381	stimuli\plant\vine\plant_vine04.jpg              	1	5	1	plant_vine04.jpg     	plant    	6	vine      	36	vine04      	363	alive    	1	still	0	natural 	1	n	1	0    	 	0.0	0	191.61582810000098	191.7157726	0.0999444999997649
158734	100	382	stimuli\movNat\waves\mn_waves04.jpg              	1	5	1	mn_waves04.jpg       	movNat   	3	waves     	38	waves04     	383	not_alive	0	moves	1	natural 	1	n	0	0    	 	0.0	0	191.7658596	191.865769600001	0.0999100000008184
158884	100	383	stimuli\plant2\moss\plant_moss09.jpg             	1	5	1	plant_moss09.jpg     	plant2   	7	moss      	25	moss09      	258	alive    	1	still	0	natural 	1	n	0	1    	f	0.305198500000188	1	191.915835600001	192.01580990000002	0.0999742999993031
159034	100	384	stimuli\nonmovNat\crystal\nmn_crystal04.jpg      	1	5	1	nmn_crystal04.jpg    	nonmovNat	5	crystal   	10	crystal04   	103	not_alive	0	still	0	natural 	1	n	0	0    	 	0.0	0	192.065907100001	192.165799	0.0998918999994202
159184	100	385	stimuli\plant\grass\plant_grass01.jpg            	1	5	1	plant_grass01.jpg    	plant    	6	grass     	17	grass01     	170	alive    	1	still	0	natural 	1	n	0	0    	 	0.0	0	192.2158819	192.315822500001	0.0999406000009912
159334	100	386	stimuli\nonmovArt\headphones\nma_headphones10.jpg	1	5	1	nma_headphones10.jpg 	nonmovArt	4	headphones	18	headphones10	189	not_alive	0	still	0	artefact	0	n	1	0    	 	0.0	0	192.365912500001	192.4657811	0.0998685999984445
159484	100	387	stimuli\plant\cactus\plant_cactus07.jpg          	1	5	1	plant_cactus07.jpg   	plant    	6	cactus    	4	cactus07    	46	alive    	1	still	0	natural 	1	n	0	0    	 	0.0	0	192.5159709	192.61586160000098	0.0998907000011968
159634	100	388	stimuli\movNat\fire\mn_fire04.jpg                	1	5	1	mn_fire04.jpg        	movNat   	3	fire      	15	fire04      	153	not_alive	0	moves	1	natural 	1	n	0	1    	f	0.39193189999968997	1	192.6658697	192.76579760000098	0.0999279000006936
159784	100	389	stimuli\plant\vine\plant_vine02.jpg              	1	5	1	plant_vine02.jpg     	plant    	6	vine      	36	vine02      	361	alive    	1	still	0	natural 	1	n	0	0    	 	0.0	0	192.8158742	192.91580180000003	0.0999276000002282
159934	100	390	stimuli\animals2\tiger\animal_tiger10.jpg        	1	5	1	animal_tiger10.jpg   	animals2 	1	tiger     	33	tiger10     	339	alive    	1	moves	1	natural 	1	n	0	0    	 	0.0	0	192.965857900001	193.0657973	0.0999393999991298
160084	100	391	stimuli\movArt\train\ma_train06.jpg              	1	5	1	ma_train06.jpg       	movArt   	2	train     	34	train06     	345	not_alive	0	moves	1	artefact	0	n	0	0    	 	0.0	0	193.1158634	193.215813800001	0.0999504000010347
160234	100	392	stimuli\animals\horse\animal_horse09.jpg         	1	5	1	animal_horse09.jpg   	animals  	0	horse     	20	horse09     	208	alive    	1	moves	1	natural 	1	n	0	0    	 	0.0	0	193.265858500001	193.3658031	0.0999445999987074
160384	100	393	stimuli\plant\tree\plant_tree01.jpg              	1	5	1	plant_tree01.jpg     	plant    	6	tree      	35	tree01      	350	alive    	1	still	0	natural 	1	n	0	0    	 	0.0	0	193.415908000001	193.51581050000098	0.0999025000000983
160534	100	394	stimuli\animals\eagle\animal_eagle09.jpg         	1	5	1	animal_eagle09.jpg   	animals  	0	eagle     	13	eagle09     	138	alive    	1	moves	1	natural 	1	n	0	0    	 	0.0	0	193.5658676	193.66579209999998	0.0999245000002702
160684	100	395	stimuli\nonmovArt\lock\nma_lock03.jpg            	1	5	1	nma_lock03.jpg       	nonmovArt	4	lock      	24	lock03      	242	not_alive	0	still	0	artefact	0	n	0	0    	 	0.0	0	193.715883700001	193.8157918	0.0999080999990838
160834	100	396	stimuli\animals2\whale\animal_whale03.jpg        	1	5	1	animal_whale03.jpg   	animals2 	1	whale     	39	whale03     	392	alive    	1	moves	1	natural 	1	n	0	0    	 	0.0	0	193.86587859999997	193.965790800001	0.0999122000011993
160984	100	397	stimuli\nonmovArt\bench\nma_bench06.jpg          	1	5	1	nma_bench06.jpg      	nonmovArt	4	bench     	1	bench06     	15	not_alive	0	still	0	artefact	0	n	0	0    	 	0.0	0	194.0158837	194.115788500001	0.0999048000012408
161134	100	398	stimuli\plant\cactus\plant_cactus06.jpg          	1	5	1	plant_cactus06.jpg   	plant    	6	cactus    	4	cactus06    	45	alive    	1	still	0	natural 	1	n	0	0    	 	0.0	0	194.165902800001	194.265857	0.0999541999990469
161284	100	399	stimuli\movArt\boat\ma_boat02.jpg                	1	5	1	ma_boat02.jpg        	movArt   	2	boat      	2	boat02      	21	not_alive	0	moves	1	artefact	0	n	0	0    	 	0.0	0	194.3159631	194.41578230000098	0.0998192000006383
169067	100	400	stimuli\nonmovArt\lock\nma_lock08.jpg            	1	6	1	nma_lock08.jpg       	nonmovArt	4	lock      	24	lock08      	247	not_alive	0	still	0	artefact	0	n	0	0    	 	0.0	0	202.0991175	202.198989300001	0.09987180000098302
169217	100	401	stimuli\plant2\moss\plant_moss07.jpg             	1	6	1	plant_moss07.jpg     	plant2   	7	moss      	25	moss07      	256	alive    	1	still	0	natural 	1	n	0	0    	 	0.0	0	202.24908430000002	202.34900630000098	0.0999220000012428
169367	100	402	stimuli\nonmovNat\rock\nmn_rock01.jpg            	1	6	1	nmn_rock01.jpg       	nonmovNat	5	rock      	30	rock01      	300	not_alive	0	still	0	natural 	1	n	0	0    	 	0.0	0	202.39909540000002	202.4989972	0.0999018000002252
169517	100	403	stimuli\plant2\clover\plant_clover08.jpg         	1	6	1	plant_clover08.jpg   	plant2   	7	clover    	9	clover08    	97	alive    	1	still	0	natural 	1	n	0	0    	 	0.0	0	202.549081000001	202.649004700001	0.0999236999996355
169667	100	404	stimuli\animals2\bee\animal_bee08.jpg            	1	6	1	animal_bee08.jpg     	animals2 	1	bee       	0	bee08       	7	alive    	1	moves	1	natural 	1	n	0	0    	 	0.0	0	202.699079	202.799004800001	0.0999258000010741
169817	100	405	stimuli\animals2\bee\animal_bee01.jpg            	1	6	1	animal_bee01.jpg     	animals2 	1	bee       	0	bee01       	0	alive    	1	moves	1	natural 	1	n	0	0    	 	0.0	0	202.84907019999997	202.9489882	0.0999179999998887
169967	100	406	stimuli\movArt\car\ma_car07.jpg                  	1	6	1	ma_car07.jpg         	movArt   	2	car       	5	car07       	56	not_alive	0	moves	1	artefact	0	n	0	0    	 	0.0	0	202.999092	203.099019900001	0.0999279000006936
170117	100	407	stimuli\nonmovNat\crystal\nmn_crystal10.jpg      	1	6	1	nmn_crystal10.jpg    	nonmovNat	5	crystal   	10	crystal10   	109	not_alive	0	still	0	natural 	1	n	0	0    	 	0.0	0	203.149091900001	203.249056300001	0.0999644000003172
170267	100	408	stimuli\movNat\river\mn_river10.jpg              	1	6	1	mn_river10.jpg       	movNat   	3	river     	29	river10     	299	not_alive	0	moves	1	natural 	1	n	0	0    	 	0.0	0	203.299073800001	203.3990015	0.0999276999991707
170417	100	409	stimuli\animals\cat\animal_cat03.jpg             	1	6	1	animal_cat03.jpg     	animals  	0	cat       	6	cat03       	62	alive    	1	moves	1	natural 	1	n	0	0    	 	0.0	0	203.44909330000002	203.548991600001	0.0998983000008593
170567	100	410	stimuli\plant\vine\plant_vine01.jpg              	1	6	1	plant_vine01.jpg     	plant    	6	vine      	36	vine01      	360	alive    	1	still	0	natural 	1	n	0	0    	 	0.0	0	203.5990814	203.699	0.0999186000008194
170717	100	411	stimuli\movNat\fire\mn_fire02.jpg                	1	6	1	mn_fire02.jpg        	movNat   	3	fire      	15	fire02      	151	not_alive	0	moves	1	natural 	1	n	0	0    	 	0.0	0	203.74908359999998	203.8489861	0.0999025000000983
170867	100	412	stimuli\animals2\lemur\animal_lemur07.jpg        	1	6	1	animal_lemur07.jpg   	animals2 	1	lemur     	23	lemur07     	236	alive    	1	moves	1	natural 	1	n	1	0    	 	0.0	0	203.8990622	203.9989986	0.0999363999999332
171017	100	413	stimuli\nonmovArt\clothespeg\nma_clothespeg05.jpg	1	6	1	nma_clothespeg05.jpg 	nonmovArt	4	clothespeg	8	clothespeg05	84	not_alive	0	still	0	artefact	0	n	0	0    	 	0.0	0	204.0490754	204.148997100001	0.0999217000007774
171167	100	414	stimuli\animals\cat\animal_cat09.jpg             	1	6	1	animal_cat09.jpg     	animals  	0	cat       	6	cat09       	68	alive    	1	moves	1	natural 	1	n	0	1    	f	0.30990480000036796	1	204.1990819	204.298992100001	0.0999102000005223
171317	100	415	stimuli\nonmovArt\mug\nma_mug07.jpg              	1	6	1	nma_mug07.jpg        	nonmovArt	4	mug       	26	mug07       	266	not_alive	0	still	0	artefact	0	n	0	0    	 	0.0	0	204.349068200001	204.448987400001	0.0999191999999311
171467	100	416	stimuli\animals\dog\animal_dog07.jpg             	1	6	1	animal_dog07.jpg     	animals  	0	dog       	11	dog07       	116	alive    	1	moves	1	natural 	1	n	0	0    	 	0.0	0	204.4990679	204.5989654	0.0998975000002246
171617	100	417	stimuli\plant2\fern\plant_fern04.jpg             	1	6	1	plant_fern04.jpg     	plant2   	7	fern      	14	fern04      	143	alive    	1	still	0	natural 	1	n	0	0    	 	0.0	0	204.64907690000098	204.748949000001	0.0998720999996294
171767	100	418	stimuli\movNat\hotspring\mn_hotspring06.jpg      	1	6	1	mn_hotspring06.jpg   	movNat   	3	hotspring 	21	hotspring06 	215	not_alive	0	moves	1	natural 	1	n	0	0    	 	0.0	0	204.799064700001	204.8989999	0.0999351999998907
171917	100	419	stimuli\nonmovArt\bench\nma_bench02.jpg          	1	6	1	nma_bench02.jpg      	nonmovArt	4	bench     	1	bench02     	11	not_alive	0	still	0	artefact	0	n	0	0    	 	0.0	0	204.94906540000002	205.049034400001	0.0999690000007831
172067	100	420	stimuli\animals2\bee\animal_bee07.jpg            	1	6	1	animal_bee07.jpg     	animals2 	1	bee       	0	bee07       	6	alive    	1	moves	1	natural 	1	n	0	0    	 	0.0	0	205.09906510000098	205.1989951	0.0999299999984941
172217	100	421	stimuli\movNat\hotspring\mn_hotspring05.jpg      	1	6	1	mn_hotspring05.jpg   	movNat   	3	hotspring 	21	hotspring05 	214	not_alive	0	moves	1	natural 	1	n	0	0    	 	0.0	0	205.2490698	205.348979100001	0.0999093000009452
172367	100	422	stimuli\plant2\fern\plant_fern09.jpg             	1	6	1	plant_fern09.jpg     	plant2   	7	fern      	14	fern09      	148	alive    	1	still	0	natural 	1	n	0	0    	 	0.0	0	205.399055900001	205.4982098	0.0991538999987824
172516	100	423	stimuli\nonmovNat\rock\nmn_rock01.jpg            	1	6	1	nmn_rock01.jpg       	nonmovNat	5	rock      	30	rock01      	300	not_alive	0	still	0	natural 	1	n	0	0    	 	0.0	0	205.54821950000002	205.6482101	0.0999905999997281
