onset	duration	eventnumber	stimulus_file	blockno	trialno	is_faststream	stim	stim_category	category_number	exemplar	exemplar_number	image_name	image_number	aliveness	aliveness_bin	movement	movement_bin	naturalness	naturalness_bin	response_hand_moves	istarget	response	keypressed	rt	correct	time_stimon	time_stimoff	stimdur
61724	100	0	stimuli\animals2\lemur\animal_lemur03.jpg        	1	1	1	animal_lemur03.jpg   	animals2 	1	lemur     	23	lemur03     	232	alive    	1	moves	1	natural 	1	n	0	0    	 	0.0	0	86.54526369995442	86.645270699868	0.10000699991360301
61874	100	1	stimuli\movArt\train\ma_train05.jpg              	1	1	1	ma_train05.jpg       	movArt   	2	train     	34	train05     	344	not_alive	0	moves	1	artefact	0	n	0	0    	 	0.0	0	86.695260199951	86.7952486998402	0.0999884998891502
62024	100	2	stimuli\plant2\moss\plant_moss04.jpg             	1	1	1	plant_moss04.jpg     	plant2   	7	moss      	25	moss04      	253	alive    	1	still	0	natural 	1	n	0	0    	 	0.0	0	86.8452561998274	86.9452466999646	0.0999905001372098
62174	100	3	stimuli\animals2\pigeon\animal_pigeon06.jpg      	1	1	1	animal_pigeon06.jpg  	animals2 	1	pigeon    	28	pigeon06    	285	alive    	1	moves	1	natural 	1	n	0	0    	 	0.0	0	86.99525499995801	87.0952429999597	0.0999880000017583
62324	100	4	stimuli\plant\grass\plant_grass09.jpg            	1	1	1	plant_grass09.jpg    	plant    	6	grass     	17	grass09     	178	alive    	1	still	0	natural 	1	n	0	0    	 	0.0	0	87.14525119983591	87.245240899967	0.0999897001311183
62474	100	5	stimuli\movNat\river\mn_river05.jpg              	1	1	1	mn_river05.jpg       	movNat   	3	river     	29	river05     	294	not_alive	0	moves	1	natural 	1	n	0	0    	 	0.0	0	87.2952517999802	87.3952541998587	0.10000239987857598
62624	100	6	stimuli\nonmovNat\shell\nmn_shell02.jpg          	1	1	1	nmn_shell02.jpg      	nonmovNat	5	shell     	32	shell02     	321	not_alive	0	still	0	natural 	1	n	0	0    	 	0.0	0	87.44524909998292	87.5452390999999	0.0999900000169873
62774	100	7	stimuli\plant2\fern\plant_fern09.jpg             	1	1	1	plant_fern09.jpg     	plant2   	7	fern      	14	fern09      	148	alive    	1	still	0	natural 	1	n	0	0    	 	0.0	0	87.5952486000024	87.6952360998839	0.0999874998815357
62925	100	8	stimuli\animals2\bee\animal_bee05.jpg            	1	1	1	animal_bee05.jpg     	animals2 	1	bee       	0	bee05       	4	alive    	1	moves	1	natural 	1	n	0	0    	 	0.0	0	87.7455303999595	87.8452351999003	0.0997047999408096
63074	100	9	stimuli\animals\dolphin\animal_dolphin05.jpg     	1	1	1	animal_dolphin05.jpg 	animals  	0	dolphin   	12	dolphin05   	124	alive    	1	moves	1	natural 	1	n	0	0    	 	0.0	0	87.8952459997963	87.9952312000096	0.0999852002132684
63224	100	10	stimuli\nonmovNat\sand\nmn_sand10.jpg            	1	1	1	nmn_sand10.jpg       	nonmovNat	5	sand      	31	sand10      	319	not_alive	0	still	0	natural 	1	n	0	0    	 	0.0	0	88.04524339991622	88.1452299999073	0.099986599991098
63374	100	11	stimuli\animals2\whale\animal_whale07.jpg        	1	1	1	animal_whale07.jpg   	animals2 	1	whale     	39	whale07     	396	alive    	1	moves	1	natural 	1	n	0	0    	 	0.0	0	88.19524229993108	88.29523259983401	0.0999902999028563
63524	100	12	stimuli\animals2\whale\animal_whale02.jpg        	1	1	1	animal_whale02.jpg   	animals2 	1	whale     	39	whale02     	391	alive    	1	moves	1	natural 	1	n	0	0    	 	0.0	0	88.34524189983499	88.4452478999738	0.100006000138819
63674	100	13	stimuli\animals2\bee\animal_bee05.jpg            	1	1	1	animal_bee05.jpg     	animals2 	1	bee       	0	bee05       	4	alive    	1	moves	1	natural 	1	n	0	0    	 	0.0	0	88.49523849994878	88.59522929997179	0.0999908000230789
63824	100	14	stimuli\animals\eagle\animal_eagle01.jpg         	1	1	1	animal_eagle01.jpg   	animals  	0	eagle     	13	eagle01     	130	alive    	1	moves	1	natural 	1	n	0	0    	 	0.0	0	88.6452372998465	88.7452267999761	0.0999895001295954
63974	100	15	stimuli\plant2\fern\plant_fern01.jpg             	1	1	1	plant_fern01.jpg     	plant2   	7	fern      	14	fern01      	140	alive    	1	still	0	natural 	1	n	0	0    	 	0.0	0	88.79523459984921	88.89522699988449	0.0999924000352621
64124	100	16	stimuli\movArt\bus\ma_bus03.jpg                  	1	1	1	ma_bus03.jpg         	movArt   	2	bus       	3	bus03       	32	not_alive	0	moves	1	artefact	0	n	0	0    	 	0.0	0	88.9452333999798	89.04521050001499	0.0999771000351756
64274	100	17	stimuli\movNat\waterfall\mn_waterfall06.jpg      	1	1	1	mn_waterfall06.jpg   	movNat   	3	waterfall 	37	waterfall06 	375	not_alive	0	moves	1	natural 	1	n	0	0    	 	0.0	0	89.0952306999825	89.1952227998991	0.0999920999165624
64424	100	18	stimuli\movNat\fire\mn_fire03.jpg                	1	1	1	mn_fire03.jpg        	movNat   	3	fire      	15	fire03      	152	not_alive	0	moves	1	natural 	1	n	0	0    	 	0.0	0	89.2452312000096	89.34521920001129	0.0999880000017583
64574	100	19	stimuli\animals2\whale\animal_whale07.jpg        	1	1	1	animal_whale07.jpg   	animals2 	1	whale     	39	whale07     	396	alive    	1	moves	1	natural 	1	n	0	0    	 	0.0	0	89.39523219992408	89.49521690001708	0.0999847000930458
64724	100	20	stimuli\animals2\lemur\animal_lemur01.jpg        	1	1	1	animal_lemur01.jpg   	animals2 	1	lemur     	23	lemur01     	230	alive    	1	moves	1	natural 	1	n	0	0    	 	0.0	0	89.54522669990548	89.64521719980979	0.0999904999043792
64874	100	21	stimuli\movArt\bus\ma_bus08.jpg                  	1	1	1	ma_bus08.jpg         	movArt   	2	bus       	3	bus08       	37	not_alive	0	moves	1	artefact	0	n	0	0    	 	0.0	0	89.6952281999402	89.79521549982019	0.0999872998800128
65024	100	22	stimuli\plant\tree\plant_tree07.jpg              	1	1	1	plant_tree07.jpg     	plant    	6	tree      	35	tree07      	356	alive    	1	still	0	natural 	1	n	1	0    	 	0.0	0	89.84522499982272	89.94521229993549	0.0999873001128435
65174	100	23	stimuli\movArt\helicopter\ma_helicopter06.jpg    	1	1	1	ma_helicopter06.jpg  	movArt   	2	helicopter	19	helicopter06	195	not_alive	0	moves	1	artefact	0	n	0	0    	 	0.0	0	89.99522189982241	90.0952114998363	0.0999896000139415
65324	100	24	stimuli\plant\flower\plant_flower03.jpg          	1	1	1	plant_flower03.jpg   	plant    	6	flower    	16	flower03    	162	alive    	1	still	0	natural 	1	n	1	0    	 	0.0	0	90.14522029994991	90.2452208998147	0.10000059986486999
65474	100	25	stimuli\movArt\bus\ma_bus05.jpg                  	1	1	1	ma_bus05.jpg         	movArt   	2	bus       	3	bus05       	34	not_alive	0	moves	1	artefact	0	n	0	1    	f	0.142141799908131	1	90.29522059997541	90.3952096998692	0.0999890998937189
65624	100	26	stimuli\plant\cactus\plant_cactus02.jpg          	1	1	1	plant_cactus02.jpg   	plant    	6	cactus    	4	cactus02    	41	alive    	1	still	0	natural 	1	n	0	0    	 	0.0	0	90.44521859986709	90.5452072999906	0.0999887001235038
65774	100	27	stimuli\nonmovArt\bench\nma_bench10.jpg          	1	1	1	nma_bench10.jpg      	nonmovArt	4	bench     	1	bench10     	19	not_alive	0	still	0	artefact	0	n	0	0    	 	0.0	0	90.595217899885	90.69520560000092	0.0999877001158893
65924	100	28	stimuli\nonmovNat\cliff\nmn_cliff05.jpg          	1	1	1	nmn_cliff05.jpg      	nonmovNat	5	cliff     	7	cliff05     	74	not_alive	0	still	0	natural 	1	n	0	0    	 	0.0	0	90.7452139998786	90.8452027998865	0.0999888000078499
66074	100	29	stimuli\nonmovNat\shell\nmn_shell10.jpg          	1	1	1	nmn_shell10.jpg      	nonmovNat	5	shell     	32	shell10     	329	not_alive	0	still	0	natural 	1	n	0	0    	 	0.0	0	90.8952823998406	90.99520409991959	0.099921700078994
66224	100	30	stimuli\nonmovNat\rock\nmn_rock05.jpg            	1	1	1	nmn_rock05.jpg       	nonmovNat	5	rock      	30	rock05      	304	not_alive	0	still	0	natural 	1	n	0	0    	 	0.0	0	91.04521199991	91.1452002997976	0.0999882998876273
66374	100	31	stimuli\nonmovNat\cliff\nmn_cliff09.jpg          	1	1	1	nmn_cliff09.jpg      	nonmovNat	5	cliff     	7	cliff09     	78	not_alive	0	still	0	natural 	1	n	0	0    	 	0.0	0	91.1952107998077	91.29519979981708	0.0999890000093728
66524	100	32	stimuli\movArt\car\ma_car08.jpg                  	1	1	1	ma_car08.jpg         	movArt   	2	car       	5	car08       	57	not_alive	0	moves	1	artefact	0	n	0	0    	 	0.0	0	91.3452127999626	91.4452001999598	0.0999873999971896
66674	100	33	stimuli\nonmovArt\mug\nma_mug09.jpg              	1	1	1	nma_mug09.jpg        	nonmovArt	4	mug       	26	mug09       	268	not_alive	0	still	0	artefact	0	n	0	0    	 	0.0	0	91.4952085998375	91.59519869997169	0.0999901001341641
66824	100	34	stimuli\plant2\clover\plant_clover10.jpg         	1	1	1	plant_clover10.jpg   	plant2   	7	clover    	9	clover10    	99	alive    	1	still	0	natural 	1	n	0	0    	 	0.0	0	91.64520059991631	91.7451945999637	0.0999940000474453
66974	100	35	stimuli\nonmovArt\clothespeg\nma_clothespeg04.jpg	1	1	1	nma_clothespeg04.jpg 	nonmovArt	4	clothespeg	8	clothespeg04	83	not_alive	0	still	0	artefact	0	n	0	0    	 	0.0	0	91.79520379984751	91.8951969000045	0.0999931001570075
67124	100	36	stimuli\animals2\pigeon\animal_pigeon09.jpg      	1	1	1	animal_pigeon09.jpg  	animals2 	1	pigeon    	28	pigeon09    	288	alive    	1	moves	1	natural 	1	n	0	0    	 	0.0	0	91.94522589980619	92.0452006999403	0.0999748001340776
67274	100	37	stimuli\movNat\river\mn_river02.jpg              	1	1	1	mn_river02.jpg       	movNat   	3	river     	29	river02     	291	not_alive	0	moves	1	natural 	1	n	0	0    	 	0.0	0	92.0952021998819	92.19519349979241	0.0999912999104708
67424	100	38	stimuli\movNat\waves\mn_waves07.jpg              	1	1	1	mn_waves07.jpg       	movNat   	3	waves     	38	waves07     	386	not_alive	0	moves	1	natural 	1	n	0	0    	 	0.0	0	92.2452052999288	92.3451923998073	0.0999870998784899
67574	100	39	stimuli\plant2\fern\plant_fern07.jpg             	1	1	1	plant_fern07.jpg     	plant2   	7	fern      	14	fern07      	146	alive    	1	still	0	natural 	1	n	0	0    	 	0.0	0	92.3952004997991	92.4951879999135	0.0999875001143664
67724	100	40	stimuli\plant\cactus\plant_cactus03.jpg          	1	1	1	plant_cactus03.jpg   	plant    	6	cactus    	4	cactus03    	42	alive    	1	still	0	natural 	1	n	0	0    	 	0.0	0	92.54531749989842	92.6452379999682	0.0999205000698566
67874	100	41	stimuli\nonmovArt\headphones\nma_headphones05.jpg	1	1	1	nma_headphones05.jpg 	nonmovArt	4	headphones	18	headphones05	184	not_alive	0	still	0	artefact	0	n	0	0    	 	0.0	0	92.6952259999234	92.79519329988399	0.0999672999605536
68024	100	42	stimuli\plant\vine\plant_vine01.jpg              	1	1	1	plant_vine01.jpg     	plant    	6	vine      	36	vine01      	360	alive    	1	still	0	natural 	1	n	0	0    	 	0.0	0	92.84520209999759	92.94519859994759	0.0999964999500662
68174	100	43	stimuli\plant2\lemontree\plant_lemontree02.jpg   	1	1	1	plant_lemontree02.jpg	plant2   	7	lemontree 	22	lemontree02 	221	alive    	1	still	0	natural 	1	n	0	0    	 	0.0	0	92.9952151998878	93.09515660000031	0.0999414001125842
68324	100	44	stimuli\animals2\pigeon\animal_pigeon08.jpg      	1	1	1	animal_pigeon08.jpg  	animals2 	1	pigeon    	28	pigeon08    	287	alive    	1	moves	1	natural 	1	n	0	0    	 	0.0	0	93.14515220001341	93.24517329991801	0.10002109990455199
68474	100	45	stimuli\nonmovArt\lock\nma_lock01.jpg            	1	1	1	nma_lock01.jpg       	nonmovArt	4	lock      	24	lock01      	240	not_alive	0	still	0	artefact	0	n	0	0    	 	0.0	0	93.29517299984579	93.39517039991921	0.0999974000733345
68624	100	46	stimuli\movNat\fire\mn_fire08.jpg                	1	1	1	mn_fire08.jpg        	movNat   	3	fire      	15	fire08      	157	not_alive	0	moves	1	natural 	1	n	0	0    	 	0.0	0	93.4451782999095	93.54516569990659	0.0999873999971896
68774	100	47	stimuli\animals2\lemur\animal_lemur09.jpg        	1	1	1	animal_lemur09.jpg   	animals2 	1	lemur     	23	lemur09     	238	alive    	1	moves	1	natural 	1	n	0	0    	 	0.0	0	93.5951782998163	93.6951670998242	0.0999888000078499
68924	100	48	stimuli\animals\horse\animal_horse04.jpg         	1	1	1	animal_horse04.jpg   	animals  	0	horse     	20	horse04     	203	alive    	1	moves	1	natural 	1	n	0	0    	 	0.0	0	93.74519279995	93.84515880001709	0.0999660000670701
69074	100	49	stimuli\nonmovArt\clothespeg\nma_clothespeg02.jpg	1	1	1	nma_clothespeg02.jpg 	nonmovArt	4	clothespeg	8	clothespeg02	81	not_alive	0	still	0	artefact	0	n	0	0    	 	0.0	0	93.8951742998324	93.99516359996049	0.0999893001280725
69224	100	50	stimuli\movNat\waterfall\mn_waterfall09.jpg      	1	1	1	mn_waterfall09.jpg   	movNat   	3	waterfall 	37	waterfall09 	378	not_alive	0	moves	1	natural 	1	n	0	0    	 	0.0	0	94.0451714999508	94.14515999984002	0.0999884998891502
69374	100	51	stimuli\movNat\river\mn_river05.jpg              	1	1	1	mn_river05.jpg       	movNat   	3	river     	29	river05     	294	not_alive	0	moves	1	natural 	1	n	0	0    	 	0.0	0	94.1951670998242	94.2951602998655	0.0999932000413537
69524	100	52	stimuli\animals2\tiger\animal_tiger01.jpg        	1	1	1	animal_tiger01.jpg   	animals2 	1	tiger     	33	tiger01     	330	alive    	1	moves	1	natural 	1	n	0	0    	 	0.0	0	94.3451642999426	94.44520299998109	0.10003870003856698
69674	100	53	stimuli\nonmovNat\crystal\nmn_crystal09.jpg      	1	1	1	nmn_crystal09.jpg    	nonmovNat	5	crystal   	10	crystal09   	108	not_alive	0	still	0	natural 	1	n	0	0    	 	0.0	0	94.49518209998492	94.59515049983749	0.0999683998525142
69824	100	54	stimuli\movNat\waves\mn_waves09.jpg              	1	1	1	mn_waves09.jpg       	movNat   	3	waves     	38	waves09     	388	not_alive	0	moves	1	natural 	1	n	0	0    	 	0.0	0	94.645164999878	94.7451551998965	0.0999902000185102
69974	100	55	stimuli\nonmovArt\bench\nma_bench02.jpg          	1	1	1	nma_bench02.jpg      	nonmovArt	4	bench     	1	bench02     	11	not_alive	0	still	0	artefact	0	n	0	0    	 	0.0	0	94.79516340000559	94.8951474998612	0.0999840998556464
70124	100	56	stimuli\plant2\palmtree\plant_palmtree08.jpg     	1	1	1	plant_palmtree08.jpg 	plant2   	7	palmtree  	27	palmtree08  	277	alive    	1	still	0	natural 	1	n	0	0    	 	0.0	0	94.94516190001741	95.04515199991872	0.0999900999013334
70274	100	57	stimuli\plant2\clover\plant_clover07.jpg         	1	1	1	plant_clover07.jpg   	plant2   	7	clover    	9	clover07    	96	alive    	1	still	0	natural 	1	n	0	0    	 	0.0	0	95.09515940002159	95.19514580001119	0.0999863999895751
70424	100	58	stimuli\nonmovArt\headphones\nma_headphones01.jpg	1	1	1	nma_headphones01.jpg 	nonmovArt	4	headphones	18	headphones01	180	not_alive	0	still	0	artefact	0	n	0	0    	 	0.0	0	95.24515650002279	95.3451437000185	0.0999871999956667
70574	100	59	stimuli\animals2\tiger\animal_tiger03.jpg        	1	1	1	animal_tiger03.jpg   	animals2 	1	tiger     	33	tiger03     	332	alive    	1	moves	1	natural 	1	n	1	0    	 	0.0	0	95.39515180001041	95.4951427998021	0.0999909997917711
70724	100	60	stimuli\nonmovArt\headphones\nma_headphones10.jpg	1	1	1	nma_headphones10.jpg 	nonmovArt	4	headphones	18	headphones10	189	not_alive	0	still	0	artefact	0	n	0	0    	 	0.0	0	95.5451526998077	95.6451437999494	0.0999911001417786
70874	100	61	stimuli\plant\grass\plant_grass05.jpg            	1	1	1	plant_grass05.jpg    	plant    	6	grass     	17	grass05     	174	alive    	1	still	0	natural 	1	n	0	0    	 	0.0	0	95.6951573998667	95.79514459986241	0.0999871999956667
71024	100	62	stimuli\movArt\boat\ma_boat09.jpg                	1	1	1	ma_boat09.jpg        	movArt   	2	boat      	2	boat09      	28	not_alive	0	moves	1	artefact	0	n	0	1    	f	0.442138399928808	1	95.84515539999121	95.9451438998804	0.0999884998891502
71174	100	63	stimuli\movNat\waves\mn_waves02.jpg              	1	1	1	mn_waves02.jpg       	movNat   	3	waves     	38	waves02     	381	not_alive	0	moves	1	natural 	1	n	0	0    	 	0.0	0	95.9951460999437	96.0951356999576	0.0999896000139415
71324	100	64	stimuli\movNat\fire\mn_fire10.jpg                	1	1	1	mn_fire10.jpg        	movNat   	3	fire      	15	fire10      	159	not_alive	0	moves	1	natural 	1	n	0	0    	 	0.0	0	96.14515149989158	96.2451643999666	0.100012900074944
71474	100	65	stimuli\plant2\moss\plant_moss04.jpg             	1	1	1	plant_moss04.jpg     	plant2   	7	moss      	25	moss04      	253	alive    	1	still	0	natural 	1	n	0	0    	 	0.0	0	96.29514870000999	96.3951379000209	0.0999892000108957
71624	100	66	stimuli\animals\cat\animal_cat03.jpg             	1	1	1	animal_cat03.jpg     	animals  	0	cat       	6	cat03       	62	alive    	1	moves	1	natural 	1	n	0	0    	 	0.0	0	96.44514029985291	96.5451318998821	0.0999916000291705
71774	100	67	stimuli\movArt\boat\ma_boat09.jpg                	1	1	1	ma_boat09.jpg        	movArt   	2	boat      	2	boat09      	28	not_alive	0	moves	1	artefact	0	n	0	0    	 	0.0	0	96.5951391998678	96.69512779987421	0.09998860000632699
71924	100	68	stimuli\movNat\waterfall\mn_waterfall04.jpg      	1	1	1	mn_waterfall04.jpg   	movNat   	3	waterfall 	37	waterfall04 	373	not_alive	0	moves	1	natural 	1	n	0	0    	 	0.0	0	96.7451396998949	96.84513289993629	0.0999932000413537
72074	100	69	stimuli\plant2\lemontree\plant_lemontree10.jpg   	1	1	1	plant_lemontree10.jpg	plant2   	7	lemontree 	22	lemontree10 	229	alive    	1	still	0	natural 	1	n	0	0    	 	0.0	0	96.8951432998292	96.9951322998386	0.0999890000093728
72224	100	70	stimuli\animals\dolphin\animal_dolphin07.jpg     	1	1	1	animal_dolphin07.jpg 	animals  	0	dolphin   	12	dolphin07   	126	alive    	1	moves	1	natural 	1	n	0	0    	 	0.0	0	97.04514069994909	97.14512619981541	0.0999854998663067
72374	100	71	stimuli\nonmovNat\crystal\nmn_crystal05.jpg      	1	1	1	nmn_crystal05.jpg    	nonmovNat	5	crystal   	10	crystal05   	104	not_alive	0	still	0	natural 	1	n	0	0    	 	0.0	0	97.1951334998012	97.29595479997809	0.10082130017690402
72525	100	72	stimuli\animals\cat\animal_cat03.jpg             	1	1	1	animal_cat03.jpg     	animals  	0	cat       	6	cat03       	62	alive    	1	moves	1	natural 	1	n	0	0    	 	0.0	0	97.3460095999762	97.4459234999958	0.099913900019601
72675	100	73	stimuli\animals2\bee\animal_bee08.jpg            	1	1	1	animal_bee08.jpg     	animals2 	1	bee       	0	bee08       	7	alive    	1	moves	1	natural 	1	n	0	0    	 	0.0	0	97.49602899979799	97.5959059998859	0.0998770000878721
72825	100	74	stimuli\nonmovArt\bench\nma_bench02.jpg          	1	1	1	nma_bench02.jpg      	nonmovArt	4	bench     	1	bench02     	11	not_alive	0	still	0	artefact	0	n	0	0    	 	0.0	0	97.6460221000016	97.74591810000129	0.0998959999997168
72975	100	75	stimuli\movArt\helicopter\ma_helicopter10.jpg    	1	1	1	ma_helicopter10.jpg  	movArt   	2	helicopter	19	helicopter10	199	not_alive	0	moves	1	artefact	0	n	0	0    	 	0.0	0	97.7960285998415	97.89595459983678	0.099925999995321
73125	100	76	stimuli\movNat\hotspring\mn_hotspring05.jpg      	1	1	1	mn_hotspring05.jpg   	movNat   	3	hotspring 	21	hotspring05 	214	not_alive	0	moves	1	natural 	1	n	0	0    	 	0.0	0	97.94605739996771	98.0460270999465	0.0999696999788284
73275	100	77	stimuli\movArt\boat\ma_boat02.jpg                	1	1	1	ma_boat02.jpg        	movArt   	2	boat      	2	boat02      	21	not_alive	0	moves	1	artefact	0	n	0	0    	 	0.0	0	98.09605659986842	98.1959096998908	0.09985310002230101
73425	100	78	stimuli\plant2\lemontree\plant_lemontree03.jpg   	1	1	1	plant_lemontree03.jpg	plant2   	7	lemontree 	22	lemontree03 	222	alive    	1	still	0	natural 	1	n	0	0    	 	0.0	0	98.24599909991959	98.345925899921	0.0999268000014126
73575	100	79	stimuli\movArt\car\ma_car03.jpg                  	1	1	1	ma_car03.jpg         	movArt   	2	car       	5	car03       	52	not_alive	0	moves	1	artefact	0	n	0	0    	 	0.0	0	98.39599529979749	98.4959346998949	0.0999394000973552
82658	100	80	stimuli\plant2\palmtree\plant_palmtree03.jpg     	1	2	1	plant_palmtree03.jpg 	plant2   	7	palmtree  	27	palmtree03  	272	alive    	1	still	0	natural 	1	n	0	0    	 	0.0	0	107.479254900012	107.579135800013	0.0998809000011533
82808	100	81	stimuli\plant2\moss\plant_moss04.jpg             	1	2	1	plant_moss04.jpg     	plant2   	7	moss      	25	moss04      	253	alive    	1	still	0	natural 	1	n	0	0    	 	0.0	0	107.629236399895	107.729134699795	0.0998982999008148
82958	100	82	stimuli\nonmovNat\rock\nmn_rock04.jpg            	1	2	1	nmn_rock04.jpg       	nonmovNat	5	rock      	30	rock04      	303	not_alive	0	still	0	natural 	1	n	0	0    	 	0.0	0	107.77922129980301	107.879117499804	0.0998962000012397
83108	100	83	stimuli\plant2\palmtree\plant_palmtree06.jpg     	1	2	1	plant_palmtree06.jpg 	plant2   	7	palmtree  	27	palmtree06  	275	alive    	1	still	0	natural 	1	n	0	0    	 	0.0	0	107.929230799898	108.029143200023	0.0999124001245945
83258	100	84	stimuli\movArt\car\ma_car08.jpg                  	1	2	1	ma_car08.jpg         	movArt   	2	car       	5	car08       	57	not_alive	0	moves	1	artefact	0	n	0	0    	 	0.0	0	108.079223799985	108.179122800007	0.0998990000225603
83408	100	85	stimuli\animals\horse\animal_horse02.jpg         	1	2	1	animal_horse02.jpg   	animals  	0	horse     	20	horse02     	201	alive    	1	moves	1	natural 	1	n	0	0    	 	0.0	0	108.229214199819	108.329123699805	0.0999094999860972
83558	100	86	stimuli\movArt\train\ma_train08.jpg              	1	2	1	ma_train08.jpg       	movArt   	2	train     	34	train08     	347	not_alive	0	moves	1	artefact	0	n	0	0    	 	0.0	0	108.379218699876	108.479134699795	0.0999159999191761
83708	100	87	stimuli\plant\grass\plant_grass07.jpg            	1	2	1	plant_grass07.jpg    	plant    	6	grass     	17	grass07     	176	alive    	1	still	0	natural 	1	n	0	0    	 	0.0	0	108.52921179984699	108.62907209992399	0.0998603000771254
83858	100	88	stimuli\animals2\tiger\animal_tiger07.jpg        	1	2	1	animal_tiger07.jpg   	animals2 	1	tiger     	33	tiger07     	336	alive    	1	moves	1	natural 	1	n	0	0    	 	0.0	0	108.679219499929	108.77917499979999	0.0999554998707026
84008	100	89	stimuli\animals\horse\animal_horse10.jpg         	1	2	1	animal_horse10.jpg   	animals  	0	horse     	20	horse10     	209	alive    	1	moves	1	natural 	1	n	0	0    	 	0.0	0	108.829209399875	108.92911449982799	0.0999050999525934
84158	100	90	stimuli\nonmovNat\crystal\nmn_crystal02.jpg      	1	2	1	nmn_crystal02.jpg    	nonmovNat	5	crystal   	10	crystal02   	101	not_alive	0	still	0	natural 	1	n	0	0    	 	0.0	0	108.979208099889	109.079109899933	0.0999018000438809
84308	100	91	stimuli\animals\dog\animal_dog09.jpg             	1	2	1	animal_dog09.jpg     	animals  	0	dog       	11	dog09       	118	alive    	1	moves	1	natural 	1	n	0	0    	 	0.0	0	109.12920309999001	109.229097999865	0.0998948998749256
84458	100	92	stimuli\animals\cat\animal_cat09.jpg             	1	2	1	animal_cat09.jpg     	animals  	0	cat       	6	cat09       	68	alive    	1	moves	1	natural 	1	n	0	0    	 	0.0	0	109.27918259985701	109.379116599914	0.0999340000562369
84608	100	93	stimuli\plant\cactus\plant_cactus05.jpg          	1	2	1	plant_cactus05.jpg   	plant    	6	cactus    	4	cactus05    	44	alive    	1	still	0	natural 	1	n	0	0    	 	0.0	0	109.429216000019	109.529097399907	0.0998813998885452
84758	100	94	stimuli\nonmovArt\lock\nma_lock09.jpg            	1	2	1	nma_lock09.jpg       	nonmovArt	4	lock      	24	lock09      	248	not_alive	0	still	0	artefact	0	n	0	0    	 	0.0	0	109.579204699956	109.679107500007	0.0999028000514954
84908	100	95	stimuli\plant\vine\plant_vine10.jpg              	1	2	1	plant_vine10.jpg     	plant    	6	vine      	36	vine10      	369	alive    	1	still	0	natural 	1	n	0	0    	 	0.0	0	109.72922539990401	109.829098399961	0.0998730000574141
85058	100	96	stimuli\nonmovNat\rock\nmn_rock08.jpg            	1	2	1	nmn_rock08.jpg       	nonmovNat	5	rock      	30	rock08      	307	not_alive	0	still	0	natural 	1	n	0	0    	 	0.0	0	109.87919499981199	109.979118099902	0.0999231000896543
85208	100	97	stimuli\nonmovNat\cliff\nmn_cliff04.jpg          	1	2	1	nmn_cliff04.jpg      	nonmovNat	5	cliff     	7	cliff04     	73	not_alive	0	still	0	natural 	1	n	0	0    	 	0.0	0	110.029228499858	110.129096099874	0.0998676000162959
85358	100	98	stimuli\animals\dog\animal_dog07.jpg             	1	2	1	animal_dog07.jpg     	animals  	0	dog       	11	dog07       	116	alive    	1	moves	1	natural 	1	n	0	0    	 	0.0	0	110.179176199948	110.279111099895	0.0999348999466747
85508	100	99	stimuli\movNat\hotspring\mn_hotspring07.jpg      	1	2	1	mn_hotspring07.jpg   	movNat   	3	hotspring 	21	hotspring07 	216	not_alive	0	moves	1	natural 	1	n	0	0    	 	0.0	0	110.32920479984	110.429119999986	0.0999152001459151
85658	100	100	stimuli\nonmovNat\sand\nmn_sand08.jpg            	1	2	1	nmn_sand08.jpg       	nonmovNat	5	sand      	31	sand08      	317	not_alive	0	still	0	natural 	1	n	0	0    	 	0.0	0	110.47919559991001	110.57911059982099	0.0999149999115616
85808	100	101	stimuli\plant\tree\plant_tree06.jpg              	1	2	1	plant_tree06.jpg     	plant    	6	tree      	35	tree06      	355	alive    	1	still	0	natural 	1	n	0	0    	 	0.0	0	110.629185999976	110.729070900008	0.0998849000316113
85958	100	102	stimuli\plant\flower\plant_flower06.jpg          	1	2	1	plant_flower06.jpg   	plant    	6	flower    	16	flower06    	165	alive    	1	still	0	natural 	1	n	0	0    	 	0.0	0	110.77919949986999	110.879097699886	0.0998982000164687
86108	100	103	stimuli\movArt\helicopter\ma_helicopter02.jpg    	1	2	1	ma_helicopter02.jpg  	movArt   	2	helicopter	19	helicopter02	191	not_alive	0	moves	1	artefact	0	n	0	0    	 	0.0	0	110.92919569998001	111.029083799804	0.09988809982314699
86258	100	104	stimuli\plant\tree\plant_tree01.jpg              	1	2	1	plant_tree01.jpg     	plant    	6	tree      	35	tree01      	350	alive    	1	still	0	natural 	1	n	1	0    	 	0.0	0	111.07919229986099	111.179089699872	0.0998974000103771
86408	100	105	stimuli\nonmovArt\lock\nma_lock07.jpg            	1	2	1	nma_lock07.jpg       	nonmovArt	4	lock      	24	lock07      	246	not_alive	0	still	0	artefact	0	n	0	0    	 	0.0	0	111.229159699986	111.329087699996	0.09992800001055001
86558	100	106	stimuli\nonmovArt\mug\nma_mug01.jpg              	1	2	1	nma_mug01.jpg        	nonmovArt	4	mug       	26	mug01       	260	not_alive	0	still	0	artefact	0	n	0	0    	 	0.0	0	111.37919559981701	111.479091899935	0.0998963001184165
86708	100	107	stimuli\nonmovNat\sand\nmn_sand08.jpg            	1	2	1	nmn_sand08.jpg       	nonmovNat	5	sand      	31	sand08      	317	not_alive	0	still	0	natural 	1	n	0	1    	f	0.44213490001857303	1	111.529184299987	111.62908410001499	0.0998998000286519
86858	100	108	stimuli\movNat\hotspring\mn_hotspring06.jpg      	1	2	1	mn_hotspring06.jpg   	movNat   	3	hotspring 	21	hotspring06 	215	not_alive	0	moves	1	natural 	1	n	0	0    	 	0.0	0	111.679185899906	111.779086599825	0.0999006999190896
87008	100	109	stimuli\plant2\clover\plant_clover10.jpg         	1	2	1	plant_clover10.jpg   	plant2   	7	clover    	9	clover10    	99	alive    	1	still	0	natural 	1	n	0	0    	 	0.0	0	111.829207699979	111.92905099992599	0.099843299947679
87158	100	110	stimuli\animals\dog\animal_dog01.jpg             	1	2	1	animal_dog01.jpg     	animals  	0	dog       	11	dog01       	110	alive    	1	moves	1	natural 	1	n	0	0    	 	0.0	0	111.97917669988199	112.079103800002	0.0999271001201123
87308	100	111	stimuli\plant\vine\plant_vine08.jpg              	1	2	1	plant_vine08.jpg     	plant    	6	vine      	36	vine08      	367	alive    	1	still	0	natural 	1	n	0	0    	 	0.0	0	112.12917909980801	112.229086200008	0.09990710020065302
87458	100	112	stimuli\nonmovNat\shell\nmn_shell04.jpg          	1	2	1	nmn_shell04.jpg      	nonmovNat	5	shell     	32	shell04     	323	not_alive	0	still	0	natural 	1	n	0	0    	 	0.0	0	112.279192999937	112.379083799897	0.0998907999601215
87608	100	113	stimuli\movArt\train\ma_train08.jpg              	1	2	1	ma_train08.jpg       	movArt   	2	train     	34	train08     	347	not_alive	0	moves	1	artefact	0	n	0	0    	 	0.0	0	112.429183499888	112.529071299825	0.09988779993727802
87758	100	114	stimuli\nonmovArt\clothespeg\nma_clothespeg04.jpg	1	2	1	nma_clothespeg04.jpg 	nonmovArt	4	clothespeg	8	clothespeg04	83	not_alive	0	still	0	artefact	0	n	0	0    	 	0.0	0	112.579181399895	112.679075299995	0.0998939001001417
87908	100	115	stimuli\plant\flower\plant_flower07.jpg          	1	2	1	plant_flower07.jpg   	plant    	6	flower    	16	flower07    	166	alive    	1	still	0	natural 	1	n	0	0    	 	0.0	0	112.729172599968	112.829084899975	0.0999123000074178
88058	100	116	stimuli\animals\eagle\animal_eagle04.jpg         	1	2	1	animal_eagle04.jpg   	animals  	0	eagle     	13	eagle04     	133	alive    	1	moves	1	natural 	1	n	0	0    	 	0.0	0	112.879193599802	112.979070700007	0.0998771002050489
88208	100	117	stimuli\animals\eagle\animal_eagle09.jpg         	1	2	1	animal_eagle09.jpg   	animals  	0	eagle     	13	eagle09     	138	alive    	1	moves	1	natural 	1	n	0	0    	 	0.0	0	113.02916229981899	113.12906029983401	0.0998980000149458
88358	100	118	stimuli\nonmovArt\mug\nma_mug10.jpg              	1	2	1	nma_mug10.jpg        	nonmovArt	4	mug       	26	mug10       	269	not_alive	0	still	0	artefact	0	n	0	0    	 	0.0	0	113.179161199834	113.279071199941	0.0999100001063198
88508	100	119	stimuli\animals\dolphin\animal_dolphin01.jpg     	1	2	1	animal_dolphin01.jpg 	animals  	0	dolphin   	12	dolphin01   	120	alive    	1	moves	1	natural 	1	n	0	0    	 	0.0	0	113.329152300023	113.429066499928	0.09991419990547
88658	100	120	stimuli\animals\horse\animal_horse01.jpg         	1	2	1	animal_horse01.jpg   	animals  	0	horse     	20	horse01     	200	alive    	1	moves	1	natural 	1	n	0	0    	 	0.0	0	113.47916190000299	113.579072099878	0.09991019987501198
88808	100	121	stimuli\plant2\fern\plant_fern07.jpg             	1	2	1	plant_fern07.jpg     	plant2   	7	fern      	14	fern07      	146	alive    	1	still	0	natural 	1	n	0	0    	 	0.0	0	113.629184099846	113.72909039980699	0.0999062999617308
88958	100	122	stimuli\plant\flower\plant_flower04.jpg          	1	2	1	plant_flower04.jpg   	plant    	6	flower    	16	flower04    	163	alive    	1	still	0	natural 	1	n	0	0    	 	0.0	0	113.779169799993	113.879070699913	0.0999008999206125
89108	100	123	stimuli\nonmovArt\mug\nma_mug06.jpg              	1	2	1	nma_mug06.jpg        	nonmovArt	4	mug       	26	mug06       	265	not_alive	0	still	0	artefact	0	n	0	0    	 	0.0	0	113.929206799949	114.029068399919	0.0998615999706089
89258	100	124	stimuli\plant2\moss\plant_moss01.jpg             	1	2	1	plant_moss01.jpg     	plant2   	7	moss      	25	moss01      	250	alive    	1	still	0	natural 	1	n	0	0    	 	0.0	0	114.07917159982	114.179071299965	0.0998997001443058
89408	100	125	stimuli\animals\dolphin\animal_dolphin08.jpg     	1	2	1	animal_dolphin08.jpg 	animals  	0	dolphin   	12	dolphin08   	127	alive    	1	moves	1	natural 	1	n	0	0    	 	0.0	0	114.22915549995399	114.32905369997	0.0998982000164687
89558	100	126	stimuli\plant\vine\plant_vine10.jpg              	1	2	1	plant_vine10.jpg     	plant    	6	vine      	36	vine10      	369	alive    	1	still	0	natural 	1	n	0	0    	 	0.0	0	114.37916889996299	114.479060999816	0.09989209985360499
89708	100	127	stimuli\movNat\river\mn_river09.jpg              	1	2	1	mn_river09.jpg       	movNat   	3	river     	29	river09     	298	not_alive	0	moves	1	natural 	1	n	0	0    	 	0.0	0	114.529158500023	114.62906289985399	0.0999043998308479
89858	100	128	stimuli\nonmovArt\headphones\nma_headphones10.jpg	1	2	1	nma_headphones10.jpg 	nonmovArt	4	headphones	18	headphones10	189	not_alive	0	still	0	artefact	0	n	0	0    	 	0.0	0	114.679158699932	114.77907099993901	0.0999123000074178
90008	100	129	stimuli\animals\dolphin\animal_dolphin09.jpg     	1	2	1	animal_dolphin09.jpg 	animals  	0	dolphin   	12	dolphin09   	128	alive    	1	moves	1	natural 	1	n	0	0    	 	0.0	0	114.82915529981301	114.929052699823	0.0998974000103771
90158	100	130	stimuli\animals2\pigeon\animal_pigeon03.jpg      	1	2	1	animal_pigeon03.jpg  	animals2 	1	pigeon    	28	pigeon03    	282	alive    	1	moves	1	natural 	1	n	0	0    	 	0.0	0	114.979138799943	115.079056599876	0.0999177999328822
90308	100	131	stimuli\nonmovArt\mug\nma_mug05.jpg              	1	2	1	nma_mug05.jpg        	nonmovArt	4	mug       	26	mug05       	264	not_alive	0	still	0	artefact	0	n	0	0    	 	0.0	0	115.129135999829	115.229062999832	0.0999270000029355
90458	100	132	stimuli\nonmovNat\crystal\nmn_crystal05.jpg      	1	2	1	nmn_crystal05.jpg    	nonmovNat	5	crystal   	10	crystal05   	104	not_alive	0	still	0	natural 	1	n	0	0    	 	0.0	0	115.279146199813	115.379054199904	0.0999080000910908
90608	100	133	stimuli\animals2\tiger\animal_tiger08.jpg        	1	2	1	animal_tiger08.jpg   	animals2 	1	tiger     	33	tiger08     	337	alive    	1	moves	1	natural 	1	n	0	0    	 	0.0	0	115.429154699901	115.529075999977	0.0999213000759482
90758	100	134	stimuli\movArt\helicopter\ma_helicopter06.jpg    	1	2	1	ma_helicopter06.jpg  	movArt   	2	helicopter	19	helicopter06	195	not_alive	0	moves	1	artefact	0	n	1	0    	 	0.0	0	115.579130999977	115.679042899981	0.099911900004372
90908	100	135	stimuli\movNat\hotspring\mn_hotspring04.jpg      	1	2	1	mn_hotspring04.jpg   	movNat   	3	hotspring 	21	hotspring04 	213	not_alive	0	moves	1	natural 	1	n	0	0    	 	0.0	0	115.72916350001499	115.829055099981	0.0998915999662131
91058	100	136	stimuli\movArt\helicopter\ma_helicopter04.jpg    	1	2	1	ma_helicopter04.jpg  	movArt   	2	helicopter	19	helicopter04	193	not_alive	0	moves	1	artefact	0	n	0	0    	 	0.0	0	115.879168299958	115.97903269995001	0.0998643999919295
91208	100	137	stimuli\nonmovArt\bench\nma_bench06.jpg          	1	2	1	nma_bench06.jpg      	nonmovArt	4	bench     	1	bench06     	15	not_alive	0	still	0	artefact	0	n	0	1    	f	0.44221380003728	1	116.029210999841	116.12905649980499	0.0998454999644309
91358	100	138	stimuli\nonmovNat\cliff\nmn_cliff10.jpg          	1	2	1	nmn_cliff10.jpg      	nonmovNat	5	cliff     	7	cliff10     	79	not_alive	0	still	0	natural 	1	n	0	0    	 	0.0	0	116.17915369989299	116.27902689995199	0.099873200058937
91508	100	139	stimuli\animals\horse\animal_horse10.jpg         	1	2	1	animal_horse10.jpg   	animals  	0	horse     	20	horse10     	209	alive    	1	moves	1	natural 	1	n	0	0    	 	0.0	0	116.32914059981701	116.42904969979999	0.0999090999830514
91658	100	140	stimuli\animals\eagle\animal_eagle02.jpg         	1	2	1	animal_eagle02.jpg   	animals  	0	eagle     	13	eagle02     	131	alive    	1	moves	1	natural 	1	n	0	0    	 	0.0	0	116.479133599903	116.579046199797	0.0999125998932868
91808	100	141	stimuli\nonmovNat\crystal\nmn_crystal08.jpg      	1	2	1	nmn_crystal08.jpg    	nonmovNat	5	crystal   	10	crystal08   	107	not_alive	0	still	0	natural 	1	n	0	0    	 	0.0	0	116.62913419981501	116.729037099984	0.0999029001686722
91958	100	142	stimuli\plant2\clover\plant_clover06.jpg         	1	2	1	plant_clover06.jpg   	plant2   	7	clover    	9	clover06    	95	alive    	1	still	0	natural 	1	n	0	0    	 	0.0	0	116.77913469984199	116.879038099898	0.0999034000560641
92108	100	143	stimuli\movArt\car\ma_car01.jpg                  	1	2	1	ma_car01.jpg         	movArt   	2	car       	5	car01       	50	not_alive	0	moves	1	artefact	0	n	0	0    	 	0.0	0	116.929136899998	117.029029699974	0.0998927999753505
92258	100	144	stimuli\plant\vine\plant_vine03.jpg              	1	2	1	plant_vine03.jpg     	plant    	6	vine      	36	vine03      	362	alive    	1	still	0	natural 	1	n	0	0    	 	0.0	0	117.079103899887	117.179024999961	0.0999211000744253
92408	100	145	stimuli\plant2\lemontree\plant_lemontree08.jpg   	1	2	1	plant_lemontree08.jpg	plant2   	7	lemontree 	22	lemontree08 	227	alive    	1	still	0	natural 	1	n	0	0    	 	0.0	0	117.229131100001	117.329063299811	0.0999321998097002
92558	100	146	stimuli\movNat\waves\mn_waves09.jpg              	1	2	1	mn_waves09.jpg       	movNat   	3	waves     	38	waves09     	388	not_alive	0	moves	1	natural 	1	n	0	0    	 	0.0	0	117.379134899937	117.47902749991002	0.0998925999738276
92708	100	147	stimuli\plant\cactus\plant_cactus09.jpg          	1	2	1	plant_cactus09.jpg   	plant    	6	cactus    	4	cactus09    	48	alive    	1	still	0	natural 	1	n	0	0    	 	0.0	0	117.529099799925	117.629025999922	0.0999261999968439
92858	100	148	stimuli\movArt\boat\ma_boat05.jpg                	1	2	1	ma_boat05.jpg        	movArt   	2	boat      	2	boat05      	24	not_alive	0	moves	1	artefact	0	n	0	0    	 	0.0	0	117.679119799985	117.77902879985099	0.0999089998658746
93008	100	149	stimuli\nonmovNat\cliff\nmn_cliff03.jpg          	1	2	1	nmn_cliff03.jpg      	nonmovNat	5	cliff     	7	cliff03     	72	not_alive	0	still	0	natural 	1	n	0	0    	 	0.0	0	117.829115699977	117.929014099995	0.0998984000179916
93158	100	150	stimuli\movArt\train\ma_train09.jpg              	1	2	1	ma_train09.jpg       	movArt   	2	train     	34	train09     	348	not_alive	0	moves	1	artefact	0	n	0	0    	 	0.0	0	117.97911919979401	118.079016999807	0.0998978000134229
93308	100	151	stimuli\movNat\waterfall\mn_waterfall08.jpg      	1	2	1	mn_waterfall08.jpg   	movNat   	3	waterfall 	37	waterfall08 	377	not_alive	0	moves	1	natural 	1	n	0	0    	 	0.0	0	118.129115899792	118.22903049993299	0.0999146001413464
93458	100	152	stimuli\nonmovArt\headphones\nma_headphones03.jpg	1	2	1	nma_headphones03.jpg 	nonmovArt	4	headphones	18	headphones03	182	not_alive	0	still	0	artefact	0	n	0	0    	 	0.0	0	118.279121199856	118.378999699838	0.0998784999828785
93608	100	153	stimuli\plant2\fern\plant_fern02.jpg             	1	2	1	plant_fern02.jpg     	plant2   	7	fern      	14	fern02      	141	alive    	1	still	0	natural 	1	n	0	0    	 	0.0	0	118.429118399974	118.52901649987301	0.09989809989929199
93758	100	154	stimuli\plant2\fern\plant_fern06.jpg             	1	2	1	plant_fern06.jpg     	plant2   	7	fern      	14	fern06      	145	alive    	1	still	0	natural 	1	n	0	0    	 	0.0	0	118.579114799853	118.6790037998	0.0998889999464154
93908	100	155	stimuli\plant2\moss\plant_moss10.jpg             	1	2	1	plant_moss10.jpg     	plant2   	7	moss      	25	moss10      	259	alive    	1	still	0	natural 	1	n	0	0    	 	0.0	0	118.72911740001301	118.82901309989401	0.0998956998810172
94058	100	156	stimuli\plant2\clover\plant_clover03.jpg         	1	2	1	plant_clover03.jpg   	plant2   	7	clover    	9	clover03    	92	alive    	1	still	0	natural 	1	n	0	0    	 	0.0	0	118.87908450001899	118.979004399851	0.0999198998324573
94208	100	157	stimuli\nonmovArt\headphones\nma_headphones05.jpg	1	2	1	nma_headphones05.jpg 	nonmovArt	4	headphones	18	headphones05	184	not_alive	0	still	0	artefact	0	n	0	0    	 	0.0	0	119.02912959991998	119.129029799951	0.0999002000316977
94358	100	158	stimuli\plant\tree\plant_tree03.jpg              	1	2	1	plant_tree03.jpg     	plant    	6	tree      	35	tree03      	352	alive    	1	still	0	natural 	1	n	0	0    	 	0.0	0	119.179106799886	119.27902269991999	0.0999159000348299
94508	100	159	stimuli\nonmovArt\clothespeg\nma_clothespeg08.jpg	1	2	1	nma_clothespeg08.jpg 	nonmovArt	4	clothespeg	8	clothespeg08	87	not_alive	0	still	0	artefact	0	n	0	0    	 	0.0	0	119.32911549997499	119.429011299973	0.0998957999981939
100708	100	160	stimuli\plant\tree\plant_tree08.jpg              	1	3	1	plant_tree08.jpg     	plant    	6	tree      	35	tree08      	357	alive    	1	still	0	natural 	1	n	0	0    	 	0.0	0	125.52905189991002	125.62894549989099	0.0998935999814421
100858	100	161	stimuli\movNat\waterfall\mn_waterfall08.jpg      	1	3	1	mn_waterfall08.jpg   	movNat   	3	waterfall 	37	waterfall08 	377	not_alive	0	moves	1	natural 	1	n	0	0    	 	0.0	0	125.679035899928	125.778924899874	0.0998889999464154
101008	100	162	stimuli\movNat\river\mn_river08.jpg              	1	3	1	mn_river08.jpg       	movNat   	3	river     	29	river08     	297	not_alive	0	moves	1	natural 	1	n	0	0    	 	0.0	0	125.82905069994699	125.92893439997	0.0998837000224739
101158	100	163	stimuli\movArt\car\ma_car03.jpg                  	1	3	1	ma_car03.jpg         	movArt   	2	car       	5	car03       	52	not_alive	0	moves	1	artefact	0	n	0	0    	 	0.0	0	125.97904699994301	126.078930999851	0.0998839999083429
101308	100	164	stimuli\animals2\whale\animal_whale09.jpg        	1	3	1	animal_whale09.jpg   	animals2 	1	whale     	39	whale09     	398	alive    	1	moves	1	natural 	1	n	0	0    	 	0.0	0	126.129014199832	126.22892699996001	0.0999128001276403
101458	100	165	stimuli\plant\grass\plant_grass01.jpg            	1	3	1	plant_grass01.jpg    	plant    	6	grass     	17	grass01     	170	alive    	1	still	0	natural 	1	n	0	0    	 	0.0	0	126.27904699998899	126.378932100022	0.0998851000331342
101608	100	166	stimuli\nonmovArt\bench\nma_bench04.jpg          	1	3	1	nma_bench04.jpg      	nonmovArt	4	bench     	1	bench04     	13	not_alive	0	still	0	artefact	0	n	0	0    	 	0.0	0	126.429029099876	126.528931599809	0.0999024999327957
101758	100	167	stimuli\animals\dog\animal_dog10.jpg             	1	3	1	animal_dog10.jpg     	animals  	0	dog       	11	dog10       	119	alive    	1	moves	1	natural 	1	n	0	0    	 	0.0	0	126.57902659988001	126.678948199842	0.0999215999618172
101908	100	168	stimuli\plant\grass\plant_grass03.jpg            	1	3	1	plant_grass03.jpg    	plant    	6	grass     	17	grass03     	172	alive    	1	still	0	natural 	1	n	0	0    	 	0.0	0	126.729022699874	126.82901309989401	0.0999904000200331
102058	100	169	stimuli\nonmovNat\sand\nmn_sand06.jpg            	1	3	1	nmn_sand06.jpg       	nonmovNat	5	sand      	31	sand06      	315	not_alive	0	still	0	natural 	1	n	0	0    	 	0.0	0	126.879091799958	126.979020199971	0.0999284000135958
102208	100	170	stimuli\movArt\car\ma_car02.jpg                  	1	3	1	ma_car02.jpg         	movArt   	2	car       	5	car02       	51	not_alive	0	moves	1	artefact	0	n	0	0    	 	0.0	0	127.02902769995899	127.128920099931	0.0998923999723047
102358	100	171	stimuli\movArt\train\ma_train09.jpg              	1	3	1	ma_train09.jpg       	movArt   	2	train     	34	train09     	348	not_alive	0	moves	1	artefact	0	n	0	0    	 	0.0	0	127.179033199791	127.278955299873	0.0999221000820398
102508	100	172	stimuli\animals2\lemur\animal_lemur03.jpg        	1	3	1	animal_lemur03.jpg   	animals2 	1	lemur     	23	lemur03     	232	alive    	1	moves	1	natural 	1	n	0	0    	 	0.0	0	127.329022899969	127.428923700005	0.0999008000362664
102658	100	173	stimuli\animals\eagle\animal_eagle04.jpg         	1	3	1	animal_eagle04.jpg   	animals  	0	eagle     	13	eagle04     	133	alive    	1	moves	1	natural 	1	n	0	0    	 	0.0	0	127.47901439992701	127.578921600012	0.0999072000849992
102808	100	174	stimuli\movArt\helicopter\ma_helicopter07.jpg    	1	3	1	ma_helicopter07.jpg  	movArt   	2	helicopter	19	helicopter07	196	not_alive	0	moves	1	artefact	0	n	0	0    	 	0.0	0	127.62902049999701	127.728925199946	0.0999046999495476
102958	100	175	stimuli\movNat\waterfall\mn_waterfall06.jpg      	1	3	1	mn_waterfall06.jpg   	movNat   	3	waterfall 	37	waterfall06 	375	not_alive	0	moves	1	natural 	1	n	0	0    	 	0.0	0	127.77901909989299	127.878916299902	0.0998972000088542
103108	100	176	stimuli\animals2\tiger\animal_tiger02.jpg        	1	3	1	animal_tiger02.jpg   	animals2 	1	tiger     	33	tiger02     	331	alive    	1	moves	1	natural 	1	n	0	0    	 	0.0	0	127.92901559988998	128.02892599999902	0.0999104001093655
103258	100	177	stimuli\animals2\bee\animal_bee09.jpg            	1	3	1	animal_bee09.jpg     	animals2 	1	bee       	0	bee09       	8	alive    	1	moves	1	natural 	1	n	0	0    	 	0.0	0	128.079019299941	128.178928399924	0.0999090999830514
103408	100	178	stimuli\movNat\hotspring\mn_hotspring05.jpg      	1	3	1	mn_hotspring05.jpg   	movNat   	3	hotspring 	21	hotspring05 	214	not_alive	0	moves	1	natural 	1	n	0	0    	 	0.0	0	128.229021299863	128.328912999947	0.0998917000833898
103558	100	179	stimuli\nonmovNat\shell\nmn_shell01.jpg          	1	3	1	nmn_shell01.jpg      	nonmovNat	5	shell     	32	shell01     	320	not_alive	0	still	0	natural 	1	n	0	0    	 	0.0	0	128.379012799822	128.478926899843	0.0999141000211238
103708	100	180	stimuli\plant\cactus\plant_cactus01.jpg          	1	3	1	plant_cactus01.jpg   	plant    	6	cactus    	4	cactus01    	40	alive    	1	still	0	natural 	1	n	0	0    	 	0.0	0	128.52900739991998	128.628989299992	0.0999819000717252
103858	100	181	stimuli\nonmovNat\sand\nmn_sand08.jpg            	1	3	1	nmn_sand08.jpg       	nonmovNat	5	sand      	31	sand08      	317	not_alive	0	still	0	natural 	1	n	0	0    	 	0.0	0	128.67910389998002	128.778966299957	0.0998623999767005
104008	100	182	stimuli\animals2\pigeon\animal_pigeon05.jpg      	1	3	1	animal_pigeon05.jpg  	animals2 	1	pigeon    	28	pigeon05    	284	alive    	1	moves	1	natural 	1	n	0	0    	 	0.0	0	128.829001399921	128.92891299980698	0.0999115998856723
104158	100	183	stimuli\nonmovNat\shell\nmn_shell07.jpg          	1	3	1	nmn_shell07.jpg      	nonmovNat	5	shell     	32	shell07     	326	not_alive	0	still	0	natural 	1	n	0	0    	 	0.0	0	128.978996499907	129.078890699893	0.0998941999860108
104308	100	184	stimuli\animals\cat\animal_cat04.jpg             	1	3	1	animal_cat04.jpg     	animals  	0	cat       	6	cat04       	63	alive    	1	moves	1	natural 	1	n	0	0    	 	0.0	0	129.128994399915	129.22891169996	0.0999173000454902
104458	100	185	stimuli\plant2\clover\plant_clover02.jpg         	1	3	1	plant_clover02.jpg   	plant2   	7	clover    	9	clover02    	91	alive    	1	still	0	natural 	1	n	0	0    	 	0.0	0	129.279065599898	129.37890419992598	0.0998386000283062
104608	100	186	stimuli\animals2\bee\animal_bee10.jpg            	1	3	1	animal_bee10.jpg     	animals2 	1	bee       	0	bee10       	9	alive    	1	moves	1	natural 	1	n	0	0    	 	0.0	0	129.428999499884	129.528910299996	0.0999108001124113
104758	100	187	stimuli\movNat\fire\mn_fire03.jpg                	1	3	1	mn_fire03.jpg        	movNat   	3	fire      	15	fire03      	152	not_alive	0	moves	1	natural 	1	n	0	0    	 	0.0	0	129.578992999857	129.678917199839	0.0999241999816149
104908	100	188	stimuli\animals\dog\animal_dog05.jpg             	1	3	1	animal_dog05.jpg     	animals  	0	dog       	11	dog05       	114	alive    	1	moves	1	natural 	1	n	0	0    	 	0.0	0	129.72898489981898	129.82888279994899	0.0998979001305997
105058	100	189	stimuli\nonmovArt\lock\nma_lock09.jpg            	1	3	1	nma_lock09.jpg       	nonmovArt	4	lock      	24	lock09      	248	not_alive	0	still	0	artefact	0	n	0	0    	 	0.0	0	129.87897869991102	129.978902699891	0.099923999980092
105208	100	190	stimuli\nonmovArt\bench\nma_bench09.jpg          	1	3	1	nma_bench09.jpg      	nonmovArt	4	bench     	1	bench09     	18	not_alive	0	still	0	artefact	0	n	0	0    	 	0.0	0	130.028980199946	130.128887099912	0.0999068999662995
105358	100	191	stimuli\plant2\palmtree\plant_palmtree08.jpg     	1	3	1	plant_palmtree08.jpg 	plant2   	7	palmtree  	27	palmtree08  	277	alive    	1	still	0	natural 	1	n	0	0    	 	0.0	0	130.17898559989402	130.278907199856	0.0999215999618172
105508	100	192	stimuli\animals2\whale\animal_whale03.jpg        	1	3	1	animal_whale03.jpg   	animals2 	1	whale     	39	whale03     	392	alive    	1	moves	1	natural 	1	n	0	0    	 	0.0	0	130.329021599842	130.428910200018	0.0998886001762002
105658	100	193	stimuli\movNat\waves\mn_waves06.jpg              	1	3	1	mn_waves06.jpg       	movNat   	3	waves     	38	waves06     	385	not_alive	0	moves	1	natural 	1	n	1	0    	 	0.0	0	130.479100199882	130.578891299898	0.0997911000158637
105808	100	194	stimuli\movArt\bus\ma_bus09.jpg                  	1	3	1	ma_bus09.jpg         	movArt   	2	bus       	3	bus09       	38	not_alive	0	moves	1	artefact	0	n	0	0    	 	0.0	0	130.628985199844	130.728894299828	0.0999090999830514
105958	100	195	stimuli\plant\tree\plant_tree01.jpg              	1	3	1	plant_tree01.jpg     	plant    	6	tree      	35	tree01      	350	alive    	1	still	0	natural 	1	n	0	1    	f	0.291924700140953	1	130.778985299869	130.878875199938	0.0998899000696838
106108	100	196	stimuli\movNat\fire\mn_fire02.jpg                	1	3	1	mn_fire02.jpg        	movNat   	3	fire      	15	fire02      	151	not_alive	0	moves	1	natural 	1	n	0	0    	 	0.0	0	130.928982299985	131.028875699965	0.0998933999799192
106258	100	197	stimuli\movNat\river\mn_river06.jpg              	1	3	1	mn_river06.jpg       	movNat   	3	river     	29	river06     	295	not_alive	0	moves	1	natural 	1	n	0	0    	 	0.0	0	131.078976499848	131.178877899889	0.0999014000408351
106408	100	198	stimuli\movArt\train\ma_train06.jpg              	1	3	1	ma_train06.jpg       	movArt   	2	train     	34	train06     	345	not_alive	0	moves	1	artefact	0	n	0	0    	 	0.0	0	131.228970199823	131.32887889980302	0.0999086999800056
106558	100	199	stimuli\plant\grass\plant_grass10.jpg            	1	3	1	plant_grass10.jpg    	plant    	6	grass     	17	grass10     	179	alive    	1	still	0	natural 	1	n	0	0    	 	0.0	0	131.378985999851	131.478870899882	0.0998849000316113
106708	100	200	stimuli\movNat\hotspring\mn_hotspring04.jpg      	1	3	1	mn_hotspring04.jpg   	movNat   	3	hotspring 	21	hotspring04 	213	not_alive	0	moves	1	natural 	1	n	0	0    	 	0.0	0	131.528972700005	131.628882399993	0.0999096999876201
106858	100	201	stimuli\animals2\whale\animal_whale09.jpg        	1	3	1	animal_whale09.jpg   	animals2 	1	whale     	39	whale09     	398	alive    	1	moves	1	natural 	1	n	0	0    	 	0.0	0	131.678955700016	131.778882999904	0.0999272998888045
107008	100	202	stimuli\nonmovNat\cliff\nmn_cliff10.jpg          	1	3	1	nmn_cliff10.jpg      	nonmovNat	5	cliff     	7	cliff10     	79	not_alive	0	still	0	natural 	1	n	0	0    	 	0.0	0	131.828978799982	131.928868299816	0.0998894998338073
107158	100	203	stimuli\animals2\tiger\animal_tiger07.jpg        	1	3	1	animal_tiger07.jpg   	animals2 	1	tiger     	33	tiger07     	336	alive    	1	moves	1	natural 	1	n	0	0    	 	0.0	0	131.97897119983102	132.078894299921	0.0999231000896543
107308	100	204	stimuli\nonmovNat\shell\nmn_shell09.jpg          	1	3	1	nmn_shell09.jpg      	nonmovNat	5	shell     	32	shell09     	328	not_alive	0	still	0	natural 	1	n	0	0    	 	0.0	0	132.129060999956	132.228966899915	0.099905899958685
107458	100	205	stimuli\animals\cat\animal_cat07.jpg             	1	3	1	animal_cat07.jpg     	animals  	0	cat       	6	cat07       	66	alive    	1	moves	1	natural 	1	n	0	0    	 	0.0	0	132.278986999998	132.378945699893	0.099958699895069
107608	100	206	stimuli\plant2\lemontree\plant_lemontree01.jpg   	1	3	1	plant_lemontree01.jpg	plant2   	7	lemontree 	22	lemontree01 	220	alive    	1	still	0	natural 	1	n	0	0    	 	0.0	0	132.428968699882	132.528865499888	0.0998968000058084
107758	100	207	stimuli\movNat\fire\mn_fire08.jpg                	1	3	1	mn_fire08.jpg        	movNat   	3	fire      	15	fire08      	157	not_alive	0	moves	1	natural 	1	n	0	0    	 	0.0	0	132.5789659	132.678854799829	0.0998888998292386
107908	100	208	stimuli\animals\dog\animal_dog10.jpg             	1	3	1	animal_dog10.jpg     	animals  	0	dog       	11	dog10       	119	alive    	1	moves	1	natural 	1	n	1	0    	 	0.0	0	132.728967099916	132.828870599857	0.0999034999404102
108058	100	209	stimuli\movArt\bus\ma_bus09.jpg                  	1	3	1	ma_bus09.jpg         	movArt   	2	bus       	3	bus09       	38	not_alive	0	moves	1	artefact	0	n	0	0    	 	0.0	0	132.87897069985002	132.978868099861	0.0998974000103771
108208	100	210	stimuli\nonmovArt\clothespeg\nma_clothespeg08.jpg	1	3	1	nma_clothespeg08.jpg 	nonmovArt	4	clothespeg	8	clothespeg08	87	not_alive	0	still	0	artefact	0	n	0	1    	f	0.391986500006169	1	133.028968899976	133.128859499935	0.0998905999585986
108358	100	211	stimuli\animals\horse\animal_horse05.jpg         	1	3	1	animal_horse05.jpg   	animals  	0	horse     	20	horse05     	204	alive    	1	moves	1	natural 	1	n	1	0    	 	0.0	0	133.17897609993798	133.27886760002	0.0998915000818669
108508	100	212	stimuli\movNat\waves\mn_waves10.jpg              	1	3	1	mn_waves10.jpg       	movNat   	3	waves     	38	waves10     	389	not_alive	0	moves	1	natural 	1	n	0	0    	 	0.0	0	133.328946899856	133.428861799883	0.0999149000272154
108658	100	213	stimuli\plant2\palmtree\plant_palmtree05.jpg     	1	3	1	plant_palmtree05.jpg 	plant2   	7	palmtree  	27	palmtree05  	274	alive    	1	still	0	natural 	1	n	0	0    	 	0.0	0	133.478949999902	133.578874599887	0.0999245999846607
108808	100	214	stimuli\nonmovArt\lock\nma_lock06.jpg            	1	3	1	nma_lock06.jpg       	nonmovArt	4	lock      	24	lock06      	245	not_alive	0	still	0	artefact	0	n	0	1    	f	0.442021999973804	1	133.628970799968	133.728871600004	0.0999008000362664
108958	100	215	stimuli\animals2\bee\animal_bee09.jpg            	1	3	1	animal_bee09.jpg     	animals2 	1	bee       	0	bee09       	8	alive    	1	moves	1	natural 	1	n	0	0    	 	0.0	0	133.77895849989702	133.878851799993	0.09989330009557301
109108	100	216	stimuli\movArt\boat\ma_boat02.jpg                	1	3	1	ma_boat02.jpg        	movArt   	2	boat      	2	boat02      	21	not_alive	0	moves	1	artefact	0	n	0	0    	 	0.0	0	133.929021999938	134.02904529986	0.100023299921304
109258	100	217	stimuli\animals\dolphin\animal_dolphin06.jpg     	1	3	1	animal_dolphin06.jpg 	animals  	0	dolphin   	12	dolphin06   	125	alive    	1	moves	1	natural 	1	n	1	0    	 	0.0	0	134.079039799981	134.178845899878	0.0998060998972505
109408	100	218	stimuli\animals2\pigeon\animal_pigeon06.jpg      	1	3	1	animal_pigeon06.jpg  	animals2 	1	pigeon    	28	pigeon06    	285	alive    	1	moves	1	natural 	1	n	0	0    	 	0.0	0	134.228959499858	134.32883769995502	0.0998782000970095
109558	100	219	stimuli\nonmovNat\rock\nmn_rock03.jpg            	1	3	1	nmn_rock03.jpg       	nonmovNat	5	rock      	30	rock03      	302	not_alive	0	still	0	natural 	1	n	0	1    	f	0.39188839984126395	1	134.378946899902	134.478856700007	0.0999098001047968
109708	100	220	stimuli\nonmovNat\crystal\nmn_crystal08.jpg      	1	3	1	nmn_crystal08.jpg    	nonmovNat	5	crystal   	10	crystal08   	107	not_alive	0	still	0	natural 	1	n	0	0    	 	0.0	0	134.528935699956	134.628844899824	0.0999091998673975
109858	100	221	stimuli\nonmovNat\rock\nmn_rock02.jpg            	1	3	1	nmn_rock02.jpg       	nonmovNat	5	rock      	30	rock02      	301	not_alive	0	still	0	natural 	1	n	0	0    	 	0.0	0	134.678924199892	134.778846499976	0.0999223000835627
110008	100	222	stimuli\nonmovArt\lock\nma_lock06.jpg            	1	3	1	nma_lock06.jpg       	nonmovArt	4	lock      	24	lock06      	245	not_alive	0	still	0	artefact	0	n	0	0    	 	0.0	0	134.828955799807	134.928844599985	0.0998888001777231
110158	100	223	stimuli\plant\flower\plant_flower01.jpg          	1	3	1	plant_flower01.jpg   	plant    	6	flower    	16	flower01    	160	alive    	1	still	0	natural 	1	n	0	0    	 	0.0	0	134.97893779981	135.078832499916	0.0998947001062333
110308	100	224	stimuli\plant\flower\plant_flower03.jpg          	1	3	1	plant_flower03.jpg   	plant    	6	flower    	16	flower03    	162	alive    	1	still	0	natural 	1	n	0	0    	 	0.0	0	135.128954799846	135.22884529991998	0.0998905000742524
110458	100	225	stimuli\animals\cat\animal_cat03.jpg             	1	3	1	animal_cat03.jpg     	animals  	0	cat       	6	cat03       	62	alive    	1	moves	1	natural 	1	n	0	0    	 	0.0	0	135.278888199944	135.378868300002	0.0999801000580191
110608	100	226	stimuli\plant\vine\plant_vine05.jpg              	1	3	1	plant_vine05.jpg     	plant    	6	vine      	36	vine05      	364	alive    	1	still	0	natural 	1	n	0	0    	 	0.0	0	135.428959899815	135.528060199926	0.0991003001108765
110757	100	227	stimuli\animals2\lemur\animal_lemur01.jpg        	1	3	1	animal_lemur01.jpg   	animals2 	1	lemur     	23	lemur01     	230	alive    	1	moves	1	natural 	1	n	0	0    	 	0.0	0	135.578071899945	135.678069300018	0.0999974000733345
110907	100	228	stimuli\movArt\bus\ma_bus08.jpg                  	1	3	1	ma_bus08.jpg         	movArt   	2	bus       	3	bus08       	37	not_alive	0	moves	1	artefact	0	n	0	0    	 	0.0	0	135.728061900008	135.828072899953	0.10001099994406099
111057	100	229	stimuli\plant2\moss\plant_moss05.jpg             	1	3	1	plant_moss05.jpg     	plant2   	7	moss      	25	moss05      	254	alive    	1	still	0	natural 	1	n	0	0    	 	0.0	0	135.878088499885	135.978053099941	0.0999646000564098
111207	100	230	stimuli\nonmovNat\rock\nmn_rock09.jpg            	1	3	1	nmn_rock09.jpg       	nonmovNat	5	rock      	30	rock09      	308	not_alive	0	still	0	natural 	1	n	0	0    	 	0.0	0	136.028074499918	136.128050799947	0.09997630002908399
111357	100	231	stimuli\plant\cactus\plant_cactus04.jpg          	1	3	1	plant_cactus04.jpg   	plant    	6	cactus    	4	cactus04    	43	alive    	1	still	0	natural 	1	n	0	0    	 	0.0	0	136.178066099994	136.278057199903	0.0999910999089479
111507	100	232	stimuli\nonmovArt\clothespeg\nma_clothespeg09.jpg	1	3	1	nma_clothespeg09.jpg 	nonmovArt	4	clothespeg	8	clothespeg09	88	not_alive	0	still	0	artefact	0	n	0	0    	 	0.0	0	136.328064499889	136.428047999972	0.0999835000839084
111657	100	233	stimuli\animals2\lemur\animal_lemur02.jpg        	1	3	1	animal_lemur02.jpg   	animals2 	1	lemur     	23	lemur02     	231	alive    	1	moves	1	natural 	1	n	0	0    	 	0.0	0	136.47806399990802	136.578053299803	0.0999892998952418
111807	100	234	stimuli\plant2\lemontree\plant_lemontree07.jpg   	1	3	1	plant_lemontree07.jpg	plant2   	7	lemontree 	22	lemontree07 	226	alive    	1	still	0	natural 	1	n	0	0    	 	0.0	0	136.62806359981198	136.728051999817	0.0999884000048041
111957	100	235	stimuli\movArt\boat\ma_boat08.jpg                	1	3	1	ma_boat08.jpg        	movArt   	2	boat      	2	boat08      	27	not_alive	0	moves	1	artefact	0	n	0	0    	 	0.0	0	136.778055199888	136.878043199889	0.0999880000017583
112107	100	236	stimuli\plant2\palmtree\plant_palmtree01.jpg     	1	3	1	plant_palmtree01.jpg 	plant2   	7	palmtree  	27	palmtree01  	270	alive    	1	still	0	natural 	1	n	0	0    	 	0.0	0	136.92805249989	137.028043299913	0.0999908000230789
112257	100	237	stimuli\nonmovNat\sand\nmn_sand02.jpg            	1	3	1	nmn_sand02.jpg       	nonmovNat	5	sand      	31	sand02      	311	not_alive	0	still	0	natural 	1	n	0	0    	 	0.0	0	137.078057099832	137.178046999965	0.0999899001326412
112407	100	238	stimuli\animals\eagle\animal_eagle05.jpg         	1	3	1	animal_eagle05.jpg   	animals  	0	eagle     	13	eagle05     	134	alive    	1	moves	1	natural 	1	n	0	0    	 	0.0	0	137.22805639985	137.328040799825	0.0999843999743461
112557	100	239	stimuli\nonmovArt\mug\nma_mug03.jpg              	1	3	1	nma_mug03.jpg        	nonmovArt	4	mug       	26	mug03       	262	not_alive	0	still	0	artefact	0	n	0	0    	 	0.0	0	137.378056199988	137.478027499979	0.0999712999910116
119874	100	240	stimuli\nonmovNat\rock\nmn_rock05.jpg            	1	4	1	nmn_rock05.jpg       	nonmovNat	5	rock      	30	rock05      	304	not_alive	0	still	0	natural 	1	n	0	0    	 	0.0	0	144.694660899928	144.794656299986	0.0999954000581056
120024	100	241	stimuli\nonmovArt\bench\nma_bench07.jpg          	1	4	1	nma_bench07.jpg      	nonmovArt	4	bench     	1	bench07     	16	not_alive	0	still	0	artefact	0	n	0	0    	 	0.0	0	144.84466029983	144.944628199795	0.0999678999651223
120174	100	242	stimuli\movNat\river\mn_river08.jpg              	1	4	1	mn_river08.jpg       	movNat   	3	river     	29	river08     	297	not_alive	0	moves	1	natural 	1	n	0	0    	 	0.0	0	144.99463719991002	145.09464199980698	0.100004799896851
120324	100	243	stimuli\nonmovNat\shell\nmn_shell09.jpg          	1	4	1	nmn_shell09.jpg      	nonmovNat	5	shell     	32	shell09     	328	not_alive	0	still	0	natural 	1	n	0	0    	 	0.0	0	145.14464969979602	145.244638299802	0.09998860000632699
120474	100	244	stimuli\animals2\pigeon\animal_pigeon06.jpg      	1	4	1	animal_pigeon06.jpg  	animals2 	1	pigeon    	28	pigeon06    	285	alive    	1	moves	1	natural 	1	n	0	0    	 	0.0	0	145.29465029994	145.394638699945	0.0999884000048041
120624	100	245	stimuli\nonmovArt\mug\nma_mug01.jpg              	1	4	1	nma_mug01.jpg        	nonmovArt	4	mug       	26	mug01       	260	not_alive	0	still	0	artefact	0	n	0	0    	 	0.0	0	145.44464449980302	145.544635999948	0.0999915001448244
120774	100	246	stimuli\animals2\pigeon\animal_pigeon01.jpg      	1	4	1	animal_pigeon01.jpg  	animals2 	1	pigeon    	28	pigeon01    	280	alive    	1	moves	1	natural 	1	n	0	0    	 	0.0	0	145.59464419982402	145.694636799861	0.099992600036785
120924	100	247	stimuli\plant\vine\plant_vine09.jpg              	1	4	1	plant_vine09.jpg     	plant    	6	vine      	36	vine09      	368	alive    	1	still	0	natural 	1	n	0	0    	 	0.0	0	145.744643399958	145.84463009983298	0.0999866998754441
121074	100	248	stimuli\nonmovArt\lock\nma_lock05.jpg            	1	4	1	nma_lock05.jpg       	nonmovArt	4	lock      	24	lock05      	244	not_alive	0	still	0	artefact	0	n	0	0    	 	0.0	0	145.89464279986	145.99463109998	0.099988300120458
121224	100	249	stimuli\plant2\fern\plant_fern01.jpg             	1	4	1	plant_fern01.jpg     	plant2   	7	fern      	14	fern01      	140	alive    	1	still	0	natural 	1	n	0	0    	 	0.0	0	146.044653599849	146.14462619996598	0.0999726001173257
121374	100	250	stimuli\plant2\lemontree\plant_lemontree07.jpg   	1	4	1	plant_lemontree07.jpg	plant2   	7	lemontree 	22	lemontree07 	226	alive    	1	still	0	natural 	1	n	0	0    	 	0.0	0	146.194639299996	146.29462859989098	0.0999892998952418
121524	100	251	stimuli\nonmovNat\shell\nmn_shell07.jpg          	1	4	1	nmn_shell07.jpg      	nonmovNat	5	shell     	32	shell07     	326	not_alive	0	still	0	natural 	1	n	0	0    	 	0.0	0	146.344637499889	146.444623899879	0.0999863999895751
121674	100	252	stimuli\plant\cactus\plant_cactus04.jpg          	1	4	1	plant_cactus04.jpg   	plant    	6	cactus    	4	cactus04    	43	alive    	1	still	0	natural 	1	n	0	0    	 	0.0	0	146.49463599990102	146.594625799917	0.0999898000154644
121824	100	253	stimuli\movNat\fire\mn_fire06.jpg                	1	4	1	mn_fire06.jpg        	movNat   	3	fire      	15	fire06      	155	not_alive	0	moves	1	natural 	1	n	0	0    	 	0.0	0	146.64463929995	146.744622099912	0.0999827999621629
121974	100	254	stimuli\movNat\fire\mn_fire02.jpg                	1	4	1	mn_fire02.jpg        	movNat   	3	fire      	15	fire02      	151	not_alive	0	moves	1	natural 	1	n	0	0    	 	0.0	0	146.7946318998	146.894621499814	0.0999896000139415
122124	100	255	stimuli\plant2\moss\plant_moss08.jpg             	1	4	1	plant_moss08.jpg     	plant2   	7	moss      	25	moss08      	257	alive    	1	still	0	natural 	1	n	0	0    	 	0.0	0	146.944632499944	147.044617599808	0.0999850998632609
122274	100	256	stimuli\animals\horse\animal_horse08.jpg         	1	4	1	animal_horse08.jpg   	animals  	0	horse     	20	horse08     	207	alive    	1	moves	1	natural 	1	n	0	0    	 	0.0	0	147.094629799947	147.195374300005	0.10074450005777198
122425	100	257	stimuli\animals\cat\animal_cat06.jpg             	1	4	1	animal_cat06.jpg     	animals  	0	cat       	6	cat06       	65	alive    	1	moves	1	natural 	1	n	0	0    	 	0.0	0	147.245485199848	147.345386199886	0.0999010000377893
122575	100	258	stimuli\animals\horse\animal_horse01.jpg         	1	4	1	animal_horse01.jpg   	animals  	0	horse     	20	horse01     	200	alive    	1	moves	1	natural 	1	n	0	0    	 	0.0	0	147.395477899816	147.495383099886	0.0999052000697702
122725	100	259	stimuli\nonmovArt\mug\nma_mug02.jpg              	1	4	1	nma_mug02.jpg        	nonmovArt	4	mug       	26	mug02       	261	not_alive	0	still	0	artefact	0	n	0	0    	 	0.0	0	147.545465599978	147.645378399873	0.0999127998948097
122875	100	260	stimuli\nonmovNat\crystal\nmn_crystal03.jpg      	1	4	1	nmn_crystal03.jpg    	nonmovNat	5	crystal   	10	crystal03   	102	not_alive	0	still	0	natural 	1	n	0	0    	 	0.0	0	147.695483899908	147.795375299873	0.0998913999646902
123025	100	261	stimuli\plant\tree\plant_tree08.jpg              	1	4	1	plant_tree08.jpg     	plant    	6	tree      	35	tree08      	357	alive    	1	still	0	natural 	1	n	0	0    	 	0.0	0	147.845477700001	147.945368199842	0.0998904998414218
123175	100	262	stimuli\movNat\hotspring\mn_hotspring04.jpg      	1	4	1	mn_hotspring04.jpg   	movNat   	3	hotspring 	21	hotspring04 	213	not_alive	0	moves	1	natural 	1	n	0	0    	 	0.0	0	147.995474899886	148.095368099865	0.0998931999783963
123325	100	263	stimuli\animals2\whale\animal_whale02.jpg        	1	4	1	animal_whale02.jpg   	animals2 	1	whale     	39	whale02     	391	alive    	1	moves	1	natural 	1	n	0	0    	 	0.0	0	148.145469299983	148.24537689983802	0.0999075998552143
123475	100	264	stimuli\movNat\river\mn_river06.jpg              	1	4	1	mn_river06.jpg       	movNat   	3	river     	29	river06     	295	not_alive	0	moves	1	natural 	1	n	0	0    	 	0.0	0	148.295482899994	148.395363099873	0.0998801998794078
123625	100	265	stimuli\movArt\car\ma_car07.jpg                  	1	4	1	ma_car07.jpg         	movArt   	2	car       	5	car07       	56	not_alive	0	moves	1	artefact	0	n	0	0    	 	0.0	0	148.445545199793	148.545366499806	0.0998213000129908
123775	100	266	stimuli\animals2\bee\animal_bee10.jpg            	1	4	1	animal_bee10.jpg     	animals2 	1	bee       	0	bee10       	9	alive    	1	moves	1	natural 	1	n	0	0    	 	0.0	0	148.59548050002198	148.695388199994	0.0999076999723911
123925	100	267	stimuli\movArt\car\ma_car05.jpg                  	1	4	1	ma_car05.jpg         	movArt   	2	car       	5	car05       	54	not_alive	0	moves	1	artefact	0	n	0	0    	 	0.0	0	148.745466599939	148.845367699862	0.0999010999221354
124075	100	268	stimuli\plant\tree\plant_tree02.jpg              	1	4	1	plant_tree02.jpg     	plant    	6	tree      	35	tree02      	351	alive    	1	still	0	natural 	1	n	0	0    	 	0.0	0	148.895478299819	148.99535759980802	0.0998792999889701
124225	100	269	stimuli\movNat\waterfall\mn_waterfall06.jpg      	1	4	1	mn_waterfall06.jpg   	movNat   	3	waterfall 	37	waterfall06 	375	not_alive	0	moves	1	natural 	1	n	0	0    	 	0.0	0	149.045459999936	149.14534479985	0.0998847999144345
124375	100	270	stimuli\plant2\fern\plant_fern05.jpg             	1	4	1	plant_fern05.jpg     	plant2   	7	fern      	14	fern05      	144	alive    	1	still	0	natural 	1	n	0	0    	 	0.0	0	149.195464499993	149.295374499867	0.0999099998734891
124525	100	271	stimuli\animals\dog\animal_dog08.jpg             	1	4	1	animal_dog08.jpg     	animals  	0	dog       	11	dog08       	117	alive    	1	moves	1	natural 	1	n	0	0    	 	0.0	0	149.34545869985598	149.44536409992702	0.0999054000712931
124675	100	272	stimuli\nonmovNat\sand\nmn_sand10.jpg            	1	4	1	nmn_sand10.jpg       	nonmovNat	5	sand      	31	sand10      	319	not_alive	0	still	0	natural 	1	n	0	0    	 	0.0	0	149.495439199964	149.595369499875	0.09993029991164802
124825	100	273	stimuli\animals2\lemur\animal_lemur04.jpg        	1	4	1	animal_lemur04.jpg   	animals2 	1	lemur     	23	lemur04     	233	alive    	1	moves	1	natural 	1	n	1	0    	 	0.0	0	149.645447699819	149.745356499916	0.0999088000971824
124975	100	274	stimuli\movNat\waterfall\mn_waterfall07.jpg      	1	4	1	mn_waterfall07.jpg   	movNat   	3	waterfall 	37	waterfall07 	376	not_alive	0	moves	1	natural 	1	n	0	0    	 	0.0	0	149.795453300001	149.895366000012	0.0999127000104636
125125	100	275	stimuli\movNat\hotspring\mn_hotspring01.jpg      	1	4	1	mn_hotspring01.jpg   	movNat   	3	hotspring 	21	hotspring01 	210	not_alive	0	moves	1	natural 	1	n	0	1    	f	0.39198950002901295	1	149.94545509992201	150.04535439983	0.0998992999084293
125275	100	276	stimuli\movArt\boat\ma_boat06.jpg                	1	4	1	ma_boat06.jpg        	movArt   	2	boat      	2	boat06      	25	not_alive	0	moves	1	artefact	0	n	0	0    	 	0.0	0	150.095452399924	150.195435799891	0.0999833999667316
125425	100	277	stimuli\plant\vine\plant_vine04.jpg              	1	4	1	plant_vine04.jpg     	plant    	6	vine      	36	vine04      	363	alive    	1	still	0	natural 	1	n	0	0    	 	0.0	0	150.245463299798	150.345349999843	0.0998867000453174
125575	100	278	stimuli\animals\horse\animal_horse07.jpg         	1	4	1	animal_horse07.jpg   	animals  	0	horse     	20	horse07     	206	alive    	1	moves	1	natural 	1	n	0	0    	 	0.0	0	150.395452599972	150.495359099936	0.0999064999632537
125725	100	279	stimuli\animals\cat\animal_cat01.jpg             	1	4	1	animal_cat01.jpg     	animals  	0	cat       	6	cat01       	60	alive    	1	moves	1	natural 	1	n	0	0    	 	0.0	0	150.54545339988502	150.645367299905	0.099913900019601
125875	100	280	stimuli\animals2\lemur\animal_lemur04.jpg        	1	4	1	animal_lemur04.jpg   	animals2 	1	lemur     	23	lemur04     	233	alive    	1	moves	1	natural 	1	n	0	0    	 	0.0	0	150.695448999992	150.795335899806	0.0998868998140096
126025	100	281	stimuli\nonmovArt\lock\nma_lock10.jpg            	1	4	1	nma_lock10.jpg       	nonmovArt	4	lock      	24	lock10      	249	not_alive	0	still	0	artefact	0	n	0	0    	 	0.0	0	150.845443899976	150.945344399894	0.0999004999175667
126175	100	282	stimuli\movArt\helicopter\ma_helicopter08.jpg    	1	4	1	ma_helicopter08.jpg  	movArt   	2	helicopter	19	helicopter08	197	not_alive	0	moves	1	artefact	0	n	0	0    	 	0.0	0	150.995446800021	151.095324999886	0.0998781998641789
126325	100	283	stimuli\plant\grass\plant_grass02.jpg            	1	4	1	plant_grass02.jpg    	plant    	6	grass     	17	grass02     	171	alive    	1	still	0	natural 	1	n	0	0    	 	0.0	0	151.1454256	151.245343399933	0.0999177999328822
126475	100	284	stimuli\animals2\tiger\animal_tiger09.jpg        	1	4	1	animal_tiger09.jpg   	animals2 	1	tiger     	33	tiger09     	338	alive    	1	moves	1	natural 	1	n	0	0    	 	0.0	0	151.295428399928	151.395339699928	0.0999112999998033
126625	100	285	stimuli\plant\cactus\plant_cactus05.jpg          	1	4	1	plant_cactus05.jpg   	plant    	6	cactus    	4	cactus05    	44	alive    	1	still	0	natural 	1	n	0	0    	 	0.0	0	151.445448599989	151.545335299801	0.0998866998124867
126775	100	286	stimuli\plant2\clover\plant_clover09.jpg         	1	4	1	plant_clover09.jpg   	plant2   	7	clover    	9	clover09    	98	alive    	1	still	0	natural 	1	n	0	0    	 	0.0	0	151.595448900014	151.695322899846	0.09987399983219801
126925	100	287	stimuli\animals2\tiger\animal_tiger09.jpg        	1	4	1	animal_tiger09.jpg   	animals2 	1	tiger     	33	tiger09     	338	alive    	1	moves	1	natural 	1	n	1	0    	 	0.0	0	151.745435399935	151.845327799907	0.0998923999723047
127075	100	288	stimuli\nonmovArt\clothespeg\nma_clothespeg06.jpg	1	4	1	nma_clothespeg06.jpg 	nonmovArt	4	clothespeg	8	clothespeg06	85	not_alive	0	still	0	artefact	0	n	0	0    	 	0.0	0	151.895438899985	151.995336299995	0.0998974000103771
127225	100	289	stimuli\nonmovNat\sand\nmn_sand05.jpg            	1	4	1	nmn_sand05.jpg       	nonmovNat	5	sand      	31	sand05      	314	not_alive	0	still	0	natural 	1	n	0	0    	 	0.0	0	152.04545539990102	152.14537659985902	0.0999211999587714
127375	100	290	stimuli\nonmovArt\mug\nma_mug08.jpg              	1	4	1	nma_mug08.jpg        	nonmovArt	4	mug       	26	mug08       	267	not_alive	0	still	0	artefact	0	n	0	1    	f	0.44206929998472294	1	152.195534399943	152.295328099979	0.0997937000356614
127525	100	291	stimuli\movNat\fire\mn_fire02.jpg                	1	4	1	mn_fire02.jpg        	movNat   	3	fire      	15	fire02      	151	not_alive	0	moves	1	natural 	1	n	0	0    	 	0.0	0	152.345422799932	152.445330899907	0.0999080999754369
127675	100	292	stimuli\movArt\train\ma_train03.jpg              	1	4	1	ma_train03.jpg       	movArt   	2	train     	34	train03     	342	not_alive	0	moves	1	artefact	0	n	0	0    	 	0.0	0	152.49542209995002	152.59531689994	0.0998947999905794
127825	100	293	stimuli\nonmovNat\rock\nmn_rock08.jpg            	1	4	1	nmn_rock08.jpg       	nonmovNat	5	rock      	30	rock08      	307	not_alive	0	still	0	natural 	1	n	0	0    	 	0.0	0	152.645428099902	152.745325799799	0.0998976998962462
127975	100	294	stimuli\plant2\palmtree\plant_palmtree05.jpg     	1	4	1	plant_palmtree05.jpg 	plant2   	7	palmtree  	27	palmtree05  	274	alive    	1	still	0	natural 	1	n	0	0    	 	0.0	0	152.795423199888	152.895299699856	0.0998764999676495
128125	100	295	stimuli\nonmovNat\cliff\nmn_cliff10.jpg          	1	4	1	nmn_cliff10.jpg      	nonmovNat	5	cliff     	7	cliff10     	79	not_alive	0	still	0	natural 	1	n	0	0    	 	0.0	0	152.945435700007	153.045327599859	0.0998918998520821
128275	100	296	stimuli\plant2\clover\plant_clover09.jpg         	1	4	1	plant_clover09.jpg   	plant2   	7	clover    	9	clover09    	98	alive    	1	still	0	natural 	1	n	0	0    	 	0.0	0	153.09541910002	153.195323399967	0.0999042999465018
128425	100	297	stimuli\animals\dolphin\animal_dolphin01.jpg     	1	4	1	animal_dolphin01.jpg 	animals  	0	dolphin   	12	dolphin01   	120	alive    	1	moves	1	natural 	1	n	0	0    	 	0.0	0	153.245422499953	153.345315799816	0.0998932998627424
128575	100	298	stimuli\plant2\lemontree\plant_lemontree03.jpg   	1	4	1	plant_lemontree03.jpg	plant2   	7	lemontree 	22	lemontree03 	222	alive    	1	still	0	natural 	1	n	0	0    	 	0.0	0	153.395408899989	153.49530839989902	0.0998994999099522
128725	100	299	stimuli\plant\flower\plant_flower10.jpg          	1	4	1	plant_flower10.jpg   	plant    	6	flower    	16	flower10    	169	alive    	1	still	0	natural 	1	n	0	0    	 	0.0	0	153.545422900002	153.64531069993998	0.09988779993727802
128875	100	300	stimuli\animals\eagle\animal_eagle03.jpg         	1	4	1	animal_eagle03.jpg   	animals  	0	eagle     	13	eagle03     	132	alive    	1	moves	1	natural 	1	n	0	0    	 	0.0	0	153.695404900005	153.79531439999099	0.0999094999860972
129025	100	301	stimuli\nonmovNat\shell\nmn_shell10.jpg          	1	4	1	nmn_shell10.jpg      	nonmovNat	5	shell     	32	shell10     	329	not_alive	0	still	0	natural 	1	n	0	0    	 	0.0	0	153.845476499991	153.945430799853	0.0999542998615652
129175	100	302	stimuli\animals\dog\animal_dog03.jpg             	1	4	1	animal_dog03.jpg     	animals  	0	dog       	11	dog03       	112	alive    	1	moves	1	natural 	1	n	0	0    	 	0.0	0	153.995525499806	154.095269399928	0.0997439001221209
129325	100	303	stimuli\animals\dolphin\animal_dolphin10.jpg     	1	4	1	animal_dolphin10.jpg 	animals  	0	dolphin   	12	dolphin10   	129	alive    	1	moves	1	natural 	1	n	0	0    	 	0.0	0	154.145403699949	154.24532149988198	0.0999177999328822
129475	100	304	stimuli\movNat\waves\mn_waves08.jpg              	1	4	1	mn_waves08.jpg       	movNat   	3	waves     	38	waves08     	387	not_alive	0	moves	1	natural 	1	n	0	0    	 	0.0	0	154.295400499832	154.395305800019	0.09990530018694699
129625	100	305	stimuli\animals2\pigeon\animal_pigeon08.jpg      	1	4	1	animal_pigeon08.jpg  	animals2 	1	pigeon    	28	pigeon08    	287	alive    	1	moves	1	natural 	1	n	0	0    	 	0.0	0	154.445419499883	154.545313299866	0.09989379998296499
129775	100	306	stimuli\animals\dog\animal_dog02.jpg             	1	4	1	animal_dog02.jpg     	animals  	0	dog       	11	dog02       	111	alive    	1	moves	1	natural 	1	n	0	0    	 	0.0	0	154.595412299968	154.695317699807	0.0999053998384624
129925	100	307	stimuli\nonmovNat\cliff\nmn_cliff04.jpg          	1	4	1	nmn_cliff04.jpg      	nonmovNat	5	cliff     	7	cliff04     	73	not_alive	0	still	0	natural 	1	n	0	0    	 	0.0	0	154.74540209979799	154.845301299822	0.0998992000240832
130075	100	308	stimuli\movNat\hotspring\mn_hotspring03.jpg      	1	4	1	mn_hotspring03.jpg   	movNat   	3	hotspring 	21	hotspring03 	212	not_alive	0	moves	1	natural 	1	n	0	0    	 	0.0	0	154.895399499917	154.995298199821	0.0998986999038606
130225	100	309	stimuli\nonmovArt\bench\nma_bench01.jpg          	1	4	1	nma_bench01.jpg      	nonmovArt	4	bench     	1	bench01     	10	not_alive	0	still	0	artefact	0	n	0	0    	 	0.0	0	155.045405799989	155.145293199923	0.0998873999342322
130375	100	310	stimuli\movNat\waves\mn_waves04.jpg              	1	4	1	mn_waves04.jpg       	movNat   	3	waves     	38	waves04     	383	not_alive	0	moves	1	natural 	1	n	0	0    	 	0.0	0	155.195403399877	155.295299999882	0.0998966000042855
130525	100	311	stimuli\animals\cat\animal_cat09.jpg             	1	4	1	animal_cat09.jpg     	animals  	0	cat       	6	cat09       	68	alive    	1	moves	1	natural 	1	n	0	0    	 	0.0	0	155.345405799802	155.445296499878	0.0998907000757753
130675	100	312	stimuli\nonmovNat\crystal\nmn_crystal01.jpg      	1	4	1	nmn_crystal01.jpg    	nonmovNat	5	crystal   	10	crystal01   	100	not_alive	0	still	0	natural 	1	n	0	0    	 	0.0	0	155.495399100007	155.595322599867	0.0999234998598694
130825	100	313	stimuli\plant2\palmtree\plant_palmtree02.jpg     	1	4	1	plant_palmtree02.jpg 	plant2   	7	palmtree  	27	palmtree02  	271	alive    	1	still	0	natural 	1	n	0	0    	 	0.0	0	155.645445899805	155.745398799889	0.0999529000837356
130975	100	314	stimuli\nonmovNat\rock\nmn_rock07.jpg            	1	4	1	nmn_rock07.jpg       	nonmovNat	5	rock      	30	rock07      	306	not_alive	0	still	0	natural 	1	n	0	0    	 	0.0	0	155.79549209983102	155.89527899981502	0.0997868999838829
131125	100	315	stimuli\nonmovArt\headphones\nma_headphones06.jpg	1	4	1	nma_headphones06.jpg 	nonmovArt	4	headphones	18	headphones06	185	not_alive	0	still	0	artefact	0	n	0	0    	 	0.0	0	155.94540279987302	156.045301399892	0.0998986000195145
131275	100	316	stimuli\nonmovArt\headphones\nma_headphones09.jpg	1	4	1	nma_headphones09.jpg 	nonmovArt	4	headphones	18	headphones09	188	not_alive	0	still	0	artefact	0	n	0	0    	 	0.0	0	156.095389999915	156.195293999976	0.0999040000606328
131425	100	317	stimuli\plant2\lemontree\plant_lemontree09.jpg   	1	4	1	plant_lemontree09.jpg	plant2   	7	lemontree 	22	lemontree09 	228	alive    	1	still	0	natural 	1	n	0	0    	 	0.0	0	156.245385699905	156.345292099984	0.0999064000789076
131575	100	318	stimuli\animals2\bee\animal_bee06.jpg            	1	4	1	animal_bee06.jpg     	animals2 	1	bee       	0	bee06       	5	alive    	1	moves	1	natural 	1	n	0	0    	 	0.0	0	156.39538569981198	156.49528929987	0.09990360005758699
131725	100	319	stimuli\animals\eagle\animal_eagle07.jpg         	1	4	1	animal_eagle07.jpg   	animals  	0	eagle     	13	eagle07     	136	alive    	1	moves	1	natural 	1	n	0	0    	 	0.0	0	156.545385899954	156.645287699997	0.0999018000438809
139625	100	320	stimuli\animals2\whale\animal_whale01.jpg        	1	5	1	animal_whale01.jpg   	animals2 	1	whale     	39	whale01     	390	alive    	1	moves	1	natural 	1	n	0	0    	 	0.0	0	164.44530069991	164.545307799941	0.10000710003078
139775	100	321	stimuli\plant2\fern\plant_fern08.jpg             	1	5	1	plant_fern08.jpg     	plant2   	7	fern      	14	fern08      	147	alive    	1	still	0	natural 	1	n	0	0    	 	0.0	0	164.595311600016	164.695202999981	0.0998913999646902
139925	100	322	stimuli\plant2\moss\plant_moss01.jpg             	1	5	1	plant_moss01.jpg     	plant2   	7	moss      	25	moss01      	250	alive    	1	still	0	natural 	1	n	0	0    	 	0.0	0	164.745301299961	164.845203399891	0.0999020999297499
140075	100	323	stimuli\movArt\train\ma_train10.jpg              	1	5	1	ma_train10.jpg       	movArt   	2	train     	34	train10     	349	not_alive	0	moves	1	artefact	0	n	0	0    	 	0.0	0	164.8953054999	164.995211899979	0.0999064000789076
140225	100	324	stimuli\movArt\bus\ma_bus06.jpg                  	1	5	1	ma_bus06.jpg         	movArt   	2	bus       	3	bus06       	35	not_alive	0	moves	1	artefact	0	n	0	0    	 	0.0	0	165.045297599863	165.145180699881	0.0998831000179052
140375	100	325	stimuli\plant\tree\plant_tree02.jpg              	1	5	1	plant_tree02.jpg     	plant    	6	tree      	35	tree02      	351	alive    	1	still	0	natural 	1	n	0	0    	 	0.0	0	165.19532940001199	165.295195699902	0.0998662998899817
140525	100	326	stimuli\nonmovArt\lock\nma_lock03.jpg            	1	5	1	nma_lock03.jpg       	nonmovArt	4	lock      	24	lock03      	242	not_alive	0	still	0	artefact	0	n	0	0    	 	0.0	0	165.345285599818	165.445201699855	0.0999161000363528
140675	100	327	stimuli\animals\eagle\animal_eagle10.jpg         	1	5	1	animal_eagle10.jpg   	animals  	0	eagle     	13	eagle10     	139	alive    	1	moves	1	natural 	1	n	0	0    	 	0.0	0	165.495301899966	165.59520709980302	0.0999051998369395
140825	100	328	stimuli\movArt\bus\ma_bus02.jpg                  	1	5	1	ma_bus02.jpg         	movArt   	2	bus       	3	bus02       	31	not_alive	0	moves	1	artefact	0	n	0	0    	 	0.0	0	165.645296499832	165.745178499958	0.0998820001259446
140975	100	329	stimuli\movArt\boat\ma_boat01.jpg                	1	5	1	ma_boat01.jpg        	movArt   	2	boat      	2	boat01      	20	not_alive	0	moves	1	artefact	0	n	0	0    	 	0.0	0	165.795303499792	165.895184299909	0.0998808001168072
141125	100	330	stimuli\nonmovArt\headphones\nma_headphones08.jpg	1	5	1	nma_headphones08.jpg 	nonmovArt	4	headphones	18	headphones08	187	not_alive	0	still	0	artefact	0	n	0	0    	 	0.0	0	165.945286599919	166.04518749983998	0.0999008999206125
141275	100	331	stimuli\animals2\lemur\animal_lemur07.jpg        	1	5	1	animal_lemur07.jpg   	animals2 	1	lemur     	23	lemur07     	236	alive    	1	moves	1	natural 	1	n	0	0    	 	0.0	0	166.095291699981	166.195199099835	0.0999073998536914
141425	100	332	stimuli\movNat\river\mn_river03.jpg              	1	5	1	mn_river03.jpg       	movNat   	3	river     	29	river03     	292	not_alive	0	moves	1	natural 	1	n	1	0    	 	0.0	0	166.245285499841	166.34519039979202	0.0999048999510705
141575	100	333	stimuli\animals2\tiger\animal_tiger06.jpg        	1	5	1	animal_tiger06.jpg   	animals2 	1	tiger     	33	tiger06     	335	alive    	1	moves	1	natural 	1	n	0	0    	 	0.0	0	166.39528299984502	166.49517879984302	0.0998957999981939
141725	100	334	stimuli\animals2\whale\animal_whale05.jpg        	1	5	1	animal_whale05.jpg   	animals2 	1	whale     	39	whale05     	394	alive    	1	moves	1	natural 	1	n	0	1    	f	0.39196730009280195	1	166.545269999886	166.645173299825	0.0999032999388873
141875	100	335	stimuli\animals2\bee\animal_bee09.jpg            	1	5	1	animal_bee09.jpg     	animals2 	1	bee       	0	bee09       	8	alive    	1	moves	1	natural 	1	n	0	0    	 	0.0	0	166.695288499817	166.795174099971	0.0998856001533568
142025	100	336	stimuli\plant\grass\plant_grass07.jpg            	1	5	1	plant_grass07.jpg    	plant    	6	grass     	17	grass07     	176	alive    	1	still	0	natural 	1	n	0	0    	 	0.0	0	166.845285199815	166.945170299849	0.0998851000331342
142175	100	337	stimuli\movArt\helicopter\ma_helicopter10.jpg    	1	5	1	ma_helicopter10.jpg  	movArt   	2	helicopter	19	helicopter10	199	not_alive	0	moves	1	artefact	0	n	0	0    	 	0.0	0	166.995324000018	167.095222599804	0.0998985997866839
142325	100	338	stimuli\movArt\car\ma_car08.jpg                  	1	5	1	ma_car08.jpg         	movArt   	2	car       	5	car08       	57	not_alive	0	moves	1	artefact	0	n	0	0    	 	0.0	0	167.14527139998998	167.245178599842	0.0999071998521685
142475	100	339	stimuli\nonmovArt\clothespeg\nma_clothespeg03.jpg	1	5	1	nma_clothespeg03.jpg 	nonmovArt	4	clothespeg	8	clothespeg03	82	not_alive	0	still	0	artefact	0	n	0	0    	 	0.0	0	167.295289399801	167.395150299883	0.0998609000816941
142625	100	340	stimuli\nonmovNat\crystal\nmn_crystal06.jpg      	1	5	1	nmn_crystal06.jpg    	nonmovNat	5	crystal   	10	crystal06   	105	not_alive	0	still	0	natural 	1	n	0	0    	 	0.0	0	167.445282199886	167.54516549990498	0.0998833000194281
142775	100	341	stimuli\plant\flower\plant_flower10.jpg          	1	5	1	plant_flower10.jpg   	plant    	6	flower    	16	flower10    	169	alive    	1	still	0	natural 	1	n	0	0    	 	0.0	0	167.595266899792	167.695165399928	0.0998985001351684
142925	100	342	stimuli\movNat\waves\mn_waves02.jpg              	1	5	1	mn_waves02.jpg       	movNat   	3	waves     	38	waves02     	381	not_alive	0	moves	1	natural 	1	n	0	0    	 	0.0	0	167.745278300019	167.845176299801	0.0998979997821152
143075	100	343	stimuli\animals\dolphin\animal_dolphin10.jpg     	1	5	1	animal_dolphin10.jpg 	animals  	0	dolphin   	12	dolphin10   	129	alive    	1	moves	1	natural 	1	n	0	0    	 	0.0	0	167.895268999971	167.995169099886	0.0999000999145209
143225	100	344	stimuli\nonmovArt\clothespeg\nma_clothespeg07.jpg	1	5	1	nma_clothespeg07.jpg 	nonmovArt	4	clothespeg	8	clothespeg07	86	not_alive	0	still	0	artefact	0	n	0	0    	 	0.0	0	168.045270900009	168.145156699931	0.099885799922049
143375	100	345	stimuli\plant2\palmtree\plant_palmtree01.jpg     	1	5	1	plant_palmtree01.jpg 	plant2   	7	palmtree  	27	palmtree01  	270	alive    	1	still	0	natural 	1	n	0	0    	 	0.0	0	168.195277999854	168.295160799986	0.0998828001320362
143525	100	346	stimuli\movArt\boat\ma_boat03.jpg                	1	5	1	ma_boat03.jpg        	movArt   	2	boat      	2	boat03      	22	not_alive	0	moves	1	artefact	0	n	0	0    	 	0.0	0	168.34525829996	168.445162199903	0.099903899943456
143675	100	347	stimuli\plant\grass\plant_grass09.jpg            	1	5	1	plant_grass09.jpg    	plant    	6	grass     	17	grass09     	178	alive    	1	still	0	natural 	1	n	0	0    	 	0.0	0	168.49526639981198	168.595165799838	0.0998994000256061
143825	100	348	stimuli\plant2\moss\plant_moss03.jpg             	1	5	1	plant_moss03.jpg     	plant2   	7	moss      	25	moss03      	252	alive    	1	still	0	natural 	1	n	0	0    	 	0.0	0	168.64526419993499	168.745149699971	0.09988550003618
143975	100	349	stimuli\movArt\train\ma_train09.jpg              	1	5	1	ma_train09.jpg       	movArt   	2	train     	34	train09     	348	not_alive	0	moves	1	artefact	0	n	0	0    	 	0.0	0	168.795266199857	168.895168899791	0.0999026999343186
144125	100	350	stimuli\movArt\helicopter\ma_helicopter01.jpg    	1	5	1	ma_helicopter01.jpg  	movArt   	2	helicopter	19	helicopter01	190	not_alive	0	moves	1	artefact	0	n	0	0    	 	0.0	0	168.945265599992	169.045164099894	0.0998984999023378
144275	100	351	stimuli\plant\flower\plant_flower05.jpg          	1	5	1	plant_flower05.jpg   	plant    	6	flower    	16	flower05    	164	alive    	1	still	0	natural 	1	n	0	0    	 	0.0	0	169.095246399986	169.195259299828	0.10001289984211302
144425	100	352	stimuli\movNat\waterfall\mn_waterfall09.jpg      	1	5	1	mn_waterfall09.jpg   	movNat   	3	waterfall 	37	waterfall09 	378	not_alive	0	moves	1	natural 	1	n	0	0    	 	0.0	0	169.245249799918	169.345159499906	0.0999096999876201
144575	100	353	stimuli\movArt\bus\ma_bus10.jpg                  	1	5	1	ma_bus10.jpg         	movArt   	2	bus       	3	bus10       	39	not_alive	0	moves	1	artefact	0	n	1	0    	 	0.0	0	169.39524219999998	169.49514349992398	0.0999012999236583
144725	100	354	stimuli\plant2\clover\plant_clover09.jpg         	1	5	1	plant_clover09.jpg   	plant2   	7	clover    	9	clover09    	98	alive    	1	still	0	natural 	1	n	0	0    	 	0.0	0	169.545244499808	169.645166999893	0.0999225000850856
144875	100	355	stimuli\nonmovArt\bench\nma_bench05.jpg          	1	5	1	nma_bench05.jpg      	nonmovArt	4	bench     	1	bench05     	14	not_alive	0	still	0	artefact	0	n	0	1    	f	0.39201039983890995	1	169.69527039979602	169.795144399861	0.0998740000650286
145025	100	356	stimuli\plant\vine\plant_vine06.jpg              	1	5	1	plant_vine06.jpg     	plant    	6	vine      	36	vine06      	365	alive    	1	still	0	natural 	1	n	0	0    	 	0.0	0	169.845260999864	169.945139699848	0.0998786999844014
145175	100	357	stimuli\nonmovNat\sand\nmn_sand01.jpg            	1	5	1	nmn_sand01.jpg       	nonmovNat	5	sand      	31	sand01      	310	not_alive	0	still	0	natural 	1	n	0	0    	 	0.0	0	169.995258399984	170.095146299806	0.0998878998216241
145325	100	358	stimuli\plant\cactus\plant_cactus10.jpg          	1	5	1	plant_cactus10.jpg   	plant    	6	cactus    	4	cactus10    	49	alive    	1	still	0	natural 	1	n	0	0    	 	0.0	0	170.145235699834	170.245143999811	0.0999082999769598
145475	100	359	stimuli\nonmovNat\cliff\nmn_cliff03.jpg          	1	5	1	nmn_cliff03.jpg      	nonmovNat	5	cliff     	7	cliff03     	72	not_alive	0	still	0	natural 	1	n	0	0    	 	0.0	0	170.295256299898	170.39513279986602	0.0998764999676495
145625	100	360	stimuli\movArt\boat\ma_boat07.jpg                	1	5	1	ma_boat07.jpg        	movArt   	2	boat      	2	boat07      	26	not_alive	0	moves	1	artefact	0	n	0	0    	 	0.0	0	170.445239399793	170.545148500009	0.099909100215882
145775	100	361	stimuli\movArt\train\ma_train10.jpg              	1	5	1	ma_train10.jpg       	movArt   	2	train     	34	train10     	349	not_alive	0	moves	1	artefact	0	n	0	0    	 	0.0	0	170.595245899865	170.69517129985599	0.0999253999907523
145925	100	362	stimuli\plant\cactus\plant_cactus02.jpg          	1	5	1	plant_cactus02.jpg   	plant    	6	cactus    	4	cactus02    	41	alive    	1	still	0	natural 	1	n	0	0    	 	0.0	0	170.745250299806	170.845156399999	0.0999061001930385
146075	100	363	stimuli\movNat\fire\mn_fire03.jpg                	1	5	1	mn_fire03.jpg        	movNat   	3	fire      	15	fire03      	152	not_alive	0	moves	1	natural 	1	n	0	0    	 	0.0	0	170.895186399808	170.995135899866	0.0999495000578463
146225	100	364	stimuli\movNat\river\mn_river06.jpg              	1	5	1	mn_river06.jpg       	movNat   	3	river     	29	river06     	295	not_alive	0	moves	1	natural 	1	n	0	0    	 	0.0	0	171.045283099869	171.14513389999	0.09985080012120301
146375	100	365	stimuli\plant2\fern\plant_fern02.jpg             	1	5	1	plant_fern02.jpg     	plant2   	7	fern      	14	fern02      	141	alive    	1	still	0	natural 	1	n	0	0    	 	0.0	0	171.195232999977	171.295126699842	0.0998936998657882
146525	100	366	stimuli\animals\eagle\animal_eagle02.jpg         	1	5	1	animal_eagle02.jpg   	animals  	0	eagle     	13	eagle02     	131	alive    	1	moves	1	natural 	1	n	1	0    	 	0.0	0	171.345236499794	171.445135199931	0.0998987001366913
146675	100	367	stimuli\nonmovNat\crystal\nmn_crystal03.jpg      	1	5	1	nmn_crystal03.jpg    	nonmovNat	5	crystal   	10	crystal03   	102	not_alive	0	still	0	natural 	1	n	0	0    	 	0.0	0	171.49523799982902	171.595133999828	0.0998959999997168
146825	100	368	stimuli\nonmovArt\mug\nma_mug10.jpg              	1	5	1	nma_mug10.jpg        	nonmovArt	4	mug       	26	mug10       	269	not_alive	0	still	0	artefact	0	n	0	1    	f	0.39196890010498503	1	171.64522369997601	171.74512239988002	0.0998986999038606
146975	100	369	stimuli\nonmovNat\sand\nmn_sand04.jpg            	1	5	1	nmn_sand04.jpg       	nonmovNat	5	sand      	31	sand04      	313	not_alive	0	still	0	natural 	1	n	0	0    	 	0.0	0	171.795240599895	171.89513550000302	0.0998949001077562
147125	100	370	stimuli\plant2\clover\plant_clover04.jpg         	1	5	1	plant_clover04.jpg   	plant2   	7	clover    	9	clover04    	93	alive    	1	still	0	natural 	1	n	0	0    	 	0.0	0	171.945229099831	172.045120899798	0.0998917999677359
147275	100	371	stimuli\movArt\car\ma_car04.jpg                  	1	5	1	ma_car04.jpg         	movArt   	2	car       	5	car04       	53	not_alive	0	moves	1	artefact	0	n	0	0    	 	0.0	0	172.095224499935	172.19512729998698	0.0999028000514954
147425	100	372	stimuli\plant\vine\plant_vine08.jpg              	1	5	1	plant_vine08.jpg     	plant    	6	vine      	36	vine08      	367	alive    	1	still	0	natural 	1	n	0	0    	 	0.0	0	172.24522959999697	172.345126600005	0.0998970000073313
147575	100	373	stimuli\movNat\waterfall\mn_waterfall01.jpg      	1	5	1	mn_waterfall01.jpg   	movNat   	3	waterfall 	37	waterfall01 	370	not_alive	0	moves	1	natural 	1	n	0	0    	 	0.0	0	172.395249499939	172.495137199992	0.0998877000529319
147725	100	374	stimuli\animals\horse\animal_horse08.jpg         	1	5	1	animal_horse08.jpg   	animals  	0	horse     	20	horse08     	207	alive    	1	moves	1	natural 	1	n	0	0    	 	0.0	0	172.54521459993	172.645112099824	0.0998974998947233
147875	100	375	stimuli\animals\cat\animal_cat02.jpg             	1	5	1	animal_cat02.jpg     	animals  	0	cat       	6	cat02       	61	alive    	1	moves	1	natural 	1	n	0	0    	 	0.0	0	172.69522179989102	172.79511549999	0.0998937000986188
148025	100	376	stimuli\animals2\whale\animal_whale01.jpg        	1	5	1	animal_whale01.jpg   	animals2 	1	whale     	39	whale01     	390	alive    	1	moves	1	natural 	1	n	0	0    	 	0.0	0	172.845211999957	172.94511680002302	0.0999048000667244
148175	100	377	stimuli\nonmovNat\cliff\nmn_cliff06.jpg          	1	5	1	nmn_cliff06.jpg      	nonmovNat	5	cliff     	7	cliff06     	75	not_alive	0	still	0	natural 	1	n	0	0    	 	0.0	0	172.99521750002202	173.09511959995098	0.0999020999297499
148325	100	378	stimuli\plant2\lemontree\plant_lemontree05.jpg   	1	5	1	plant_lemontree05.jpg	plant2   	7	lemontree 	22	lemontree05 	224	alive    	1	still	0	natural 	1	n	0	0    	 	0.0	0	173.14520749985198	173.24512550001998	0.0999180001672357
148475	100	379	stimuli\plant\flower\plant_flower06.jpg          	1	5	1	plant_flower06.jpg   	plant    	6	flower    	16	flower06    	165	alive    	1	still	0	natural 	1	n	0	0    	 	0.0	0	173.29522289987702	173.39511459996	0.0998917000833898
148625	100	380	stimuli\animals\dog\animal_dog09.jpg             	1	5	1	animal_dog09.jpg     	animals  	0	dog       	11	dog09       	118	alive    	1	moves	1	natural 	1	n	0	0    	 	0.0	0	173.44521499983998	173.54510929994302	0.0998943001031875
148775	100	381	stimuli\animals\cat\animal_cat05.jpg             	1	5	1	animal_cat05.jpg     	animals  	0	cat       	6	cat05       	64	alive    	1	moves	1	natural 	1	n	0	0    	 	0.0	0	173.595211699838	173.695112499874	0.0999008000362664
148925	100	382	stimuli\movNat\waterfall\mn_waterfall10.jpg      	1	5	1	mn_waterfall10.jpg   	movNat   	3	waterfall 	37	waterfall10 	379	not_alive	0	moves	1	natural 	1	n	0	0    	 	0.0	0	173.745172499912	173.84512620000197	0.0999537000898271
149075	100	383	stimuli\animals\eagle\animal_eagle09.jpg         	1	5	1	animal_eagle09.jpg   	animals  	0	eagle     	13	eagle09     	138	alive    	1	moves	1	natural 	1	n	0	0    	 	0.0	0	173.89520579995602	173.995109699899	0.099903899943456
149225	100	384	stimuli\nonmovArt\bench\nma_bench10.jpg          	1	5	1	nma_bench10.jpg      	nonmovArt	4	bench     	1	bench10     	19	not_alive	0	still	0	artefact	0	n	0	0    	 	0.0	0	174.04519340000098	174.145104799885	0.0999113998841494
149375	100	385	stimuli\plant\tree\plant_tree04.jpg              	1	5	1	plant_tree04.jpg     	plant    	6	tree      	35	tree04      	353	alive    	1	still	0	natural 	1	n	0	0    	 	0.0	0	174.195210999809	174.295123799937	0.0999128001276403
149525	100	386	stimuli\animals2\pigeon\animal_pigeon09.jpg      	1	5	1	animal_pigeon09.jpg  	animals2 	1	pigeon    	28	pigeon09    	288	alive    	1	moves	1	natural 	1	n	0	0    	 	0.0	0	174.345202799886	174.445042799925	0.0998400000389665
149675	100	387	stimuli\movArt\boat\ma_boat08.jpg                	1	5	1	ma_boat08.jpg        	movArt   	2	boat      	2	boat08      	27	not_alive	0	moves	1	artefact	0	n	0	0    	 	0.0	0	174.495208399836	174.595097699901	0.0998893000651151
149825	100	388	stimuli\plant2\lemontree\plant_lemontree06.jpg   	1	5	1	plant_lemontree06.jpg	plant2   	7	lemontree 	22	lemontree06 	225	alive    	1	still	0	natural 	1	n	0	0    	 	0.0	0	174.645196399884	174.745109699899	0.0999133000150322
149975	100	389	stimuli\movArt\bus\ma_bus04.jpg                  	1	5	1	ma_bus04.jpg         	movArt   	2	bus       	3	bus04       	33	not_alive	0	moves	1	artefact	0	n	0	0    	 	0.0	0	174.79519460001	174.89510069997	0.0999060999602079
150125	100	390	stimuli\movNat\fire\mn_fire04.jpg                	1	5	1	mn_fire04.jpg        	movNat   	3	fire      	15	fire04      	153	not_alive	0	moves	1	natural 	1	n	0	0    	 	0.0	0	174.94519729982102	175.045113699976	0.0999164001550525
150275	100	391	stimuli\movArt\helicopter\ma_helicopter09.jpg    	1	5	1	ma_helicopter09.jpg  	movArt   	2	helicopter	19	helicopter09	198	not_alive	0	moves	1	artefact	0	n	0	0    	 	0.0	0	175.095205300022	175.195103599923	0.0998982999008148
150425	100	392	stimuli\animals\eagle\animal_eagle07.jpg         	1	5	1	animal_eagle07.jpg   	animals  	0	eagle     	13	eagle07     	136	alive    	1	moves	1	natural 	1	n	0	0    	 	0.0	0	175.245194099843	175.34509999980202	0.099905899958685
150575	100	393	stimuli\animals\dolphin\animal_dolphin08.jpg     	1	5	1	animal_dolphin08.jpg 	animals  	0	dolphin   	12	dolphin08   	127	alive    	1	moves	1	natural 	1	n	0	0    	 	0.0	0	175.395201999927	175.495089999866	0.0998879999388009
150725	100	394	stimuli\nonmovArt\headphones\nma_headphones04.jpg	1	5	1	nma_headphones04.jpg 	nonmovArt	4	headphones	18	headphones04	183	not_alive	0	still	0	artefact	0	n	0	0    	 	0.0	0	175.545193899889	175.645089899888	0.0998959999997168
150875	100	395	stimuli\nonmovNat\sand\nmn_sand07.jpg            	1	5	1	nmn_sand07.jpg       	nonmovNat	5	sand      	31	sand07      	316	not_alive	0	still	0	natural 	1	n	0	0    	 	0.0	0	175.69519719993698	175.79509369982398	0.0998964998871088
151025	100	396	stimuli\nonmovNat\rock\nmn_rock03.jpg            	1	5	1	nmn_rock03.jpg       	nonmovNat	5	rock      	30	rock03      	302	not_alive	0	still	0	natural 	1	n	0	0    	 	0.0	0	175.84520629979698	175.945085699903	0.0998794001061469
151175	100	397	stimuli\plant\grass\plant_grass04.jpg            	1	5	1	plant_grass04.jpg    	plant    	6	grass     	17	grass04     	173	alive    	1	still	0	natural 	1	n	0	0    	 	0.0	0	175.995184799889	176.095092199976	0.0999074000865221
151325	100	398	stimuli\nonmovArt\mug\nma_mug09.jpg              	1	5	1	nma_mug09.jpg        	nonmovArt	4	mug       	26	mug09       	268	not_alive	0	still	0	artefact	0	n	0	0    	 	0.0	0	176.14518069988097	176.245098499814	0.0999177999328822
151475	100	399	stimuli\plant2\clover\plant_clover03.jpg         	1	5	1	plant_clover03.jpg   	plant2   	7	clover    	9	clover03    	92	alive    	1	still	0	natural 	1	n	0	0    	 	0.0	0	176.295194400009	176.395077099791	0.0998826997820288
158641	100	400	stimuli\nonmovNat\cliff\nmn_cliff09.jpg          	1	6	1	nmn_cliff09.jpg      	nonmovNat	5	cliff     	7	cliff09     	78	not_alive	0	still	0	natural 	1	n	0	0    	 	0.0	0	183.461791299982	183.561671399977	0.0998800999950617
158791	100	401	stimuli\movNat\hotspring\mn_hotspring08.jpg      	1	6	1	mn_hotspring08.jpg   	movNat   	3	hotspring 	21	hotspring08 	217	not_alive	0	moves	1	natural 	1	n	0	0    	 	0.0	0	183.611773699988	183.71167359990102	0.09989989991299801
158941	100	402	stimuli\plant\cactus\plant_cactus02.jpg          	1	6	1	plant_cactus02.jpg   	plant    	6	cactus    	4	cactus02    	41	alive    	1	still	0	natural 	1	n	0	0    	 	0.0	0	183.761774800019	183.861671499908	0.0998966998886317
159091	100	403	stimuli\nonmovNat\sand\nmn_sand03.jpg            	1	6	1	nmn_sand03.jpg       	nonmovNat	5	sand      	31	sand03      	312	not_alive	0	still	0	natural 	1	n	0	0    	 	0.0	0	183.911770399893	184.01167109981202	0.0999006999190896
159241	100	404	stimuli\movNat\waterfall\mn_waterfall05.jpg      	1	6	1	mn_waterfall05.jpg   	movNat   	3	waterfall 	37	waterfall05 	374	not_alive	0	moves	1	natural 	1	n	0	0    	 	0.0	0	184.0617703998	184.161673399853	0.0999030000530183
159391	100	405	stimuli\plant2\moss\plant_moss07.jpg             	1	6	1	plant_moss07.jpg     	plant2   	7	moss      	25	moss07      	256	alive    	1	still	0	natural 	1	n	0	0    	 	0.0	0	184.21177049982398	184.311678699916	0.0999082000926137
159541	100	406	stimuli\movNat\hotspring\mn_hotspring03.jpg      	1	6	1	mn_hotspring03.jpg   	movNat   	3	hotspring 	21	hotspring03 	212	not_alive	0	moves	1	natural 	1	n	0	0    	 	0.0	0	184.36173819983398	184.46165769989602	0.0999195000622421
159691	100	407	stimuli\movArt\boat\ma_boat02.jpg                	1	6	1	ma_boat02.jpg        	movArt   	2	boat      	2	boat02      	21	not_alive	0	moves	1	artefact	0	n	0	0    	 	0.0	0	184.511777999811	184.611658099806	0.0998800999950617
159841	100	408	stimuli\movNat\fire\mn_fire09.jpg                	1	6	1	mn_fire09.jpg        	movNat   	3	fire      	15	fire09      	158	not_alive	0	moves	1	natural 	1	n	0	0    	 	0.0	0	184.661781399976	184.761661799857	0.0998803998809307
159991	100	409	stimuli\nonmovNat\cliff\nmn_cliff06.jpg          	1	6	1	nmn_cliff06.jpg      	nonmovNat	5	cliff     	7	cliff06     	75	not_alive	0	still	0	natural 	1	n	0	0    	 	0.0	0	184.811765599996	184.91165449982498	0.0998888998292386
160141	100	410	stimuli\nonmovNat\shell\nmn_shell06.jpg          	1	6	1	nmn_shell06.jpg      	nonmovNat	5	shell     	32	shell06     	325	not_alive	0	still	0	natural 	1	n	0	0    	 	0.0	0	184.961760699982	185.06165459984902	0.0998938998673111
160291	100	411	stimuli\plant\grass\plant_grass04.jpg            	1	6	1	plant_grass04.jpg    	plant    	6	grass     	17	grass04     	173	alive    	1	still	0	natural 	1	n	1	0    	 	0.0	0	185.111748099793	185.21166369994202	0.0999156001489609
160441	100	412	stimuli\plant\flower\plant_flower02.jpg          	1	6	1	plant_flower02.jpg   	plant    	6	flower    	16	flower02    	161	alive    	1	still	0	natural 	1	n	0	0    	 	0.0	0	185.261761699803	185.36165119986998	0.09988950006663799
160591	100	413	stimuli\nonmovArt\headphones\nma_headphones04.jpg	1	6	1	nma_headphones04.jpg 	nonmovArt	4	headphones	18	headphones04	183	not_alive	0	still	0	artefact	0	n	0	0    	 	0.0	0	185.411755499896	185.511665799888	0.0999102999921888
160741	100	414	stimuli\nonmovNat\shell\nmn_shell09.jpg          	1	6	1	nmn_shell09.jpg      	nonmovNat	5	shell     	32	shell09     	328	not_alive	0	still	0	natural 	1	n	0	1    	f	0.541143800131977	1	185.560899799922	185.66089049982799	0.0999906999059021
160891	100	415	stimuli\nonmovArt\clothespeg\nma_clothespeg03.jpg	1	6	1	nma_clothespeg03.jpg 	nonmovArt	4	clothespeg	8	clothespeg03	82	not_alive	0	still	0	artefact	0	n	0	0    	 	0.0	0	185.71090129995702	185.81088949996	0.0999882000032812
161041	100	416	stimuli\plant\vine\plant_vine09.jpg              	1	6	1	plant_vine09.jpg     	plant    	6	vine      	36	vine09      	368	alive    	1	still	0	natural 	1	n	0	0    	 	0.0	0	185.860898499843	185.960885699838	0.0999871999956667
161191	100	417	stimuli\movArt\helicopter\ma_helicopter06.jpg    	1	6	1	ma_helicopter06.jpg  	movArt   	2	helicopter	19	helicopter06	195	not_alive	0	moves	1	artefact	0	n	0	0    	 	0.0	0	186.010894899955	186.110884799855	0.0999898998998105
