onset	duration	eventnumber	stimulus_file	blockno	trialno	is_faststream	stim	stim_category	category_number	exemplar	exemplar_number	image_name	image_number	aliveness	aliveness_bin	movement	movement_bin	naturalness	naturalness_bin	response_hand_moves	istarget	response	keypressed	rt	correct	time_stimon	time_stimoff	stimdur
65372	100	0	stimuli\animals\horse\animal_horse03.jpg         	1	1	1	animal_horse03.jpg   	animals  	0	horse     	20	horse03     	202	alive    	1	moves	1	natural 	1	n	0	0    	 	0.0	0	47.9571594999943	48.0570503999988	0.0998909000045387
65522	100	1	stimuli\nonmovNat\rock\nmn_rock05.jpg            	1	1	1	nmn_rock05.jpg       	nonmovNat	5	rock      	30	rock05      	304	not_alive	0	still	0	natural 	1	n	0	0    	 	0.0	0	48.1071764999942	48.2070405999984	0.0998641000041971
65672	100	2	stimuli\nonmovArt\lock\nma_lock02.jpg            	1	1	1	nma_lock02.jpg       	nonmovArt	4	lock      	24	lock02      	241	not_alive	0	still	0	artefact	0	n	0	0    	 	0.0	0	48.2571267999956	48.3570460999981	0.0999193000025116
65822	100	3	stimuli\movNat\fire\mn_fire08.jpg                	1	1	1	mn_fire08.jpg        	movNat   	3	fire      	15	fire08      	157	not_alive	0	moves	1	natural 	1	n	0	0    	 	0.0	0	48.407144099997794	48.50705229999579	0.0999081999980262
65972	100	4	stimuli\animals2\bee\animal_bee02.jpg            	1	1	1	animal_bee02.jpg     	animals2 	1	bee       	0	bee02       	1	alive    	1	moves	1	natural 	1	n	0	0    	 	0.0	0	48.557127	48.657027799999895	0.0999007999998866
66122	100	5	stimuli\animals\horse\animal_horse07.jpg         	1	1	1	animal_horse07.jpg   	animals  	0	horse     	20	horse07     	206	alive    	1	moves	1	natural 	1	n	0	0    	 	0.0	0	48.707167000000496	48.8070313999997	0.0998643999992054
66272	100	6	stimuli\animals\dolphin\animal_dolphin08.jpg     	1	1	1	animal_dolphin08.jpg 	animals  	0	dolphin   	12	dolphin08   	127	alive    	1	moves	1	natural 	1	n	0	0    	 	0.0	0	48.8571431999953	48.9570523000002	0.0999091000048792
66422	100	7	stimuli\movNat\waterfall\mn_waterfall09.jpg      	1	1	1	mn_waterfall09.jpg   	movNat   	3	waterfall 	37	waterfall09 	378	not_alive	0	moves	1	natural 	1	n	0	0    	 	0.0	0	49.00715259999561	49.10704199999601	0.0998894000003929
66573	100	8	stimuli\movArt\helicopter\ma_helicopter04.jpg    	1	1	1	ma_helicopter04.jpg  	movArt   	2	helicopter	19	helicopter04	193	not_alive	0	moves	1	artefact	0	n	0	0    	 	0.0	0	49.157526899995005	49.2570761999959	0.0995493000009446
66722	100	9	stimuli\plant2\lemontree\plant_lemontree05.jpg   	1	1	1	plant_lemontree05.jpg	plant2   	7	lemontree 	22	lemontree05 	224	alive    	1	still	0	natural 	1	n	0	0    	 	0.0	0	49.3071383999995	49.407044699997606	0.0999062999981106
66872	100	10	stimuli\animals2\bee\animal_bee03.jpg            	1	1	1	animal_bee03.jpg     	animals2 	1	bee       	0	bee03       	2	alive    	1	moves	1	natural 	1	n	0	0    	 	0.0	0	49.4571324999997	49.557029299998206	0.0998967999985325
67022	100	11	stimuli\nonmovNat\rock\nmn_rock10.jpg            	1	1	1	nmn_rock10.jpg       	nonmovNat	5	rock      	30	rock10      	309	not_alive	0	still	0	natural 	1	n	0	0    	 	0.0	0	49.607118199994105	49.7070280999978	0.0999099000036949
67172	100	12	stimuli\plant2\lemontree\plant_lemontree01.jpg   	1	1	1	plant_lemontree01.jpg	plant2   	7	lemontree 	22	lemontree01 	220	alive    	1	still	0	natural 	1	n	0	0    	 	0.0	0	49.7571233999988	49.857037399997395	0.0999139999985345
67322	100	13	stimuli\nonmovArt\headphones\nma_headphones08.jpg	1	1	1	nma_headphones08.jpg 	nonmovArt	4	headphones	18	headphones08	187	not_alive	0	still	0	artefact	0	n	0	0    	 	0.0	0	49.90712239999989	50.007010499997705	0.09988809999777
67472	100	14	stimuli\plant\tree\plant_tree06.jpg              	1	1	1	plant_tree06.jpg     	plant    	6	tree      	35	tree06      	355	alive    	1	still	0	natural 	1	n	0	0    	 	0.0	0	50.0571264999962	50.157014599994	0.09988809999777
67622	100	15	stimuli\movNat\river\mn_river03.jpg              	1	1	1	mn_river03.jpg       	movNat   	3	river     	29	river03     	292	not_alive	0	moves	1	natural 	1	n	0	0    	 	0.0	0	50.2071193999946	50.307022399996605	0.0999030000020866
67772	100	16	stimuli\nonmovNat\shell\nmn_shell10.jpg          	1	1	1	nmn_shell10.jpg      	nonmovNat	5	shell     	32	shell10     	329	not_alive	0	still	0	natural 	1	n	0	0    	 	0.0	0	50.3571159999992	50.4570127999978	0.0998967999985325
67922	100	17	stimuli\movArt\boat\ma_boat03.jpg                	1	1	1	ma_boat03.jpg        	movArt   	2	boat      	2	boat03      	22	not_alive	0	moves	1	artefact	0	n	0	0    	 	0.0	0	50.507143700000604	50.6070080999998	0.0998643999992054
68072	100	18	stimuli\plant\tree\plant_tree06.jpg              	1	1	1	plant_tree06.jpg     	plant    	6	tree      	35	tree06      	355	alive    	1	still	0	natural 	1	n	0	0    	 	0.0	0	50.6571442999994	50.7570070999936	0.0998627999942982
68222	100	19	stimuli\plant\cactus\plant_cactus08.jpg          	1	1	1	plant_cactus08.jpg   	plant    	6	cactus    	4	cactus08    	47	alive    	1	still	0	natural 	1	n	0	0    	 	0.0	0	50.8071353999985	50.9070307000002	0.0998953000016626
68372	100	20	stimuli\animals\dolphin\animal_dolphin08.jpg     	1	1	1	animal_dolphin08.jpg 	animals  	0	dolphin   	12	dolphin08   	127	alive    	1	moves	1	natural 	1	n	0	0    	 	0.0	0	50.957114999997394	51.0570097999953	0.0998947999978554
68522	100	21	stimuli\plant2\palmtree\plant_palmtree04.jpg     	1	1	1	plant_palmtree04.jpg 	plant2   	7	palmtree  	27	palmtree04  	273	alive    	1	still	0	natural 	1	n	0	0    	 	0.0	0	51.1070955999967	51.2070116999967	0.09991609999997302
68672	100	22	stimuli\plant\grass\plant_grass03.jpg            	1	1	1	plant_grass03.jpg    	plant    	6	grass     	17	grass03     	172	alive    	1	still	0	natural 	1	n	0	0    	 	0.0	0	51.257087999998504	51.35701770000011	0.0999297000016668
68822	100	23	stimuli\movArt\car\ma_car02.jpg                  	1	1	1	ma_car02.jpg         	movArt   	2	car       	5	car02       	51	not_alive	0	moves	1	artefact	0	n	0	0    	 	0.0	0	51.407095499998796	51.5070125999991	0.0999171000003116
68972	100	24	stimuli\nonmovArt\headphones\nma_headphones09.jpg	1	1	1	nma_headphones09.jpg 	nonmovArt	4	headphones	18	headphones09	188	not_alive	0	still	0	artefact	0	n	0	0    	 	0.0	0	51.5570831999939	51.6570091999965	0.09992600000259699
69122	100	25	stimuli\nonmovNat\shell\nmn_shell08.jpg          	1	1	1	nmn_shell08.jpg      	nonmovNat	5	shell     	32	shell08     	327	not_alive	0	still	0	natural 	1	n	0	0    	 	0.0	0	51.7071154000005	51.8070089999965	0.09989359999599401
69272	100	26	stimuli\animals\horse\animal_horse09.jpg         	1	1	1	animal_horse09.jpg   	animals  	0	horse     	20	horse09     	208	alive    	1	moves	1	natural 	1	n	0	0    	 	0.0	0	51.857108500000294	51.9569816000003	0.0998730999999679
69422	100	27	stimuli\nonmovNat\crystal\nmn_crystal04.jpg      	1	1	1	nmn_crystal04.jpg    	nonmovNat	5	crystal   	10	crystal04   	103	not_alive	0	still	0	natural 	1	n	1	0    	 	0.0	0	52.00710429999889	52.1069900000002	0.0998857000013231
69572	100	28	stimuli\animals2\tiger\animal_tiger04.jpg        	1	1	1	animal_tiger04.jpg   	animals2 	1	tiger     	33	tiger04     	333	alive    	1	moves	1	natural 	1	n	0	0    	 	0.0	0	52.157082599995206	52.2570158999952	0.0999332999999751
69722	100	29	stimuli\animals2\lemur\animal_lemur07.jpg        	1	1	1	animal_lemur07.jpg   	animals2 	1	lemur     	23	lemur07     	236	alive    	1	moves	1	natural 	1	n	0	1    	f	0.302638900000602	1	52.3071388999961	52.406998799997396	0.09985990000132
69872	100	30	stimuli\plant2\palmtree\plant_palmtree02.jpg     	1	1	1	plant_palmtree02.jpg 	plant2   	7	palmtree  	27	palmtree02  	271	alive    	1	still	0	natural 	1	n	1	0    	 	0.0	0	52.4570973999944	52.5570095000003	0.0999121000058949
70022	100	31	stimuli\plant2\fern\plant_fern02.jpg             	1	1	1	plant_fern02.jpg     	plant2   	7	fern      	14	fern02      	141	alive    	1	still	0	natural 	1	n	0	0    	 	0.0	0	52.607149399998896	52.7070076999953	0.0998582999964128
70172	100	32	stimuli\movArt\train\ma_train05.jpg              	1	1	1	ma_train05.jpg       	movArt   	2	train     	34	train05     	344	not_alive	0	moves	1	artefact	0	n	0	0    	 	0.0	0	52.757094199994704	52.856987499995796	0.0998933000009856
70322	100	33	stimuli\movNat\waves\mn_waves09.jpg              	1	1	1	mn_waves09.jpg       	movNat   	3	waves     	38	waves09     	388	not_alive	0	moves	1	natural 	1	n	0	1    	f	0.44201800000155395	1	52.907092999994404	53.0070053999953	0.0999124000009032
70472	100	34	stimuli\plant2\fern\plant_fern04.jpg             	1	1	1	plant_fern04.jpg     	plant2   	7	fern      	14	fern04      	143	alive    	1	still	0	natural 	1	n	0	0    	 	0.0	0	53.0571027999977	53.1569913999992	0.0998886000015772
70622	100	35	stimuli\plant\cactus\plant_cactus04.jpg          	1	1	1	plant_cactus04.jpg   	plant    	6	cactus    	4	cactus04    	43	alive    	1	still	0	natural 	1	n	0	0    	 	0.0	0	53.2070575999969	53.306988899996206	0.099931299999298
70772	100	36	stimuli\nonmovArt\clothespeg\nma_clothespeg01.jpg	1	1	1	nma_clothespeg01.jpg 	nonmovArt	4	clothespeg	8	clothespeg01	80	not_alive	0	still	0	artefact	0	n	1	0    	 	0.0	0	53.357083099996096	53.456984500000495	0.0999014000044553
70922	100	37	stimuli\movArt\car\ma_car06.jpg                  	1	1	1	ma_car06.jpg         	movArt   	2	car       	5	car06       	55	not_alive	0	moves	1	artefact	0	n	0	0    	 	0.0	0	53.5070806999938	53.606998099996396	0.0999174000025959
71072	100	38	stimuli\movNat\fire\mn_fire10.jpg                	1	1	1	mn_fire10.jpg        	movNat   	3	fire      	15	fire10      	159	not_alive	0	moves	1	natural 	1	n	0	1    	f	0.391980899999908	1	53.6570779999966	53.7569824999955	0.0999044999989564
71222	100	39	stimuli\animals2\bee\animal_bee01.jpg            	1	1	1	animal_bee01.jpg     	animals2 	1	bee       	0	bee01       	0	alive    	1	moves	1	natural 	1	n	0	0    	 	0.0	0	53.8070635999975	53.906975999998394	0.0999124000009032
71372	100	40	stimuli\plant2\moss\plant_moss08.jpg             	1	1	1	plant_moss08.jpg     	plant2   	7	moss      	25	moss08      	257	alive    	1	still	0	natural 	1	n	0	0    	 	0.0	0	53.957069399999504	54.05698819999821	0.0999187999987043
71522	100	41	stimuli\animals\cat\animal_cat01.jpg             	1	1	1	animal_cat01.jpg     	animals  	0	cat       	6	cat01       	60	alive    	1	moves	1	natural 	1	n	0	0    	 	0.0	0	54.10709659999699	54.2070095999952	0.09991299999819599
71672	100	42	stimuli\animals\eagle\animal_eagle08.jpg         	1	1	1	animal_eagle08.jpg   	animals  	0	eagle     	13	eagle08     	137	alive    	1	moves	1	natural 	1	n	0	0    	 	0.0	0	54.2570802999981	54.357004599995	0.0999242999969283
71822	100	43	stimuli\nonmovArt\mug\nma_mug02.jpg              	1	1	1	nma_mug02.jpg        	nonmovArt	4	mug       	26	mug02       	261	not_alive	0	still	0	artefact	0	n	0	0    	 	0.0	0	54.407209199998796	54.507000799996604	0.0997915999978431
71972	100	44	stimuli\nonmovArt\mug\nma_mug05.jpg              	1	1	1	nma_mug05.jpg        	nonmovArt	4	mug       	26	mug05       	264	not_alive	0	still	0	artefact	0	n	0	0    	 	0.0	0	54.55716910000049	54.6569849999942	0.0998158999937004
72122	100	45	stimuli\plant\grass\plant_grass09.jpg            	1	1	1	plant_grass09.jpg    	plant    	6	grass     	17	grass09     	178	alive    	1	still	0	natural 	1	n	0	0    	 	0.0	0	54.70705739999539	54.806973399994604	0.0999159999992116
72272	100	46	stimuli\plant\flower\plant_flower07.jpg          	1	1	1	plant_flower07.jpg   	plant    	6	flower    	16	flower07    	166	alive    	1	still	0	natural 	1	n	0	0    	 	0.0	0	54.857147499999	54.9569902000003	0.09984270000131801
72422	100	47	stimuli\plant2\clover\plant_clover08.jpg         	1	1	1	plant_clover08.jpg   	plant2   	7	clover    	9	clover08    	97	alive    	1	still	0	natural 	1	n	0	0    	 	0.0	0	55.0070676999967	55.10696669999739	0.0998990000007324
72572	100	48	stimuli\plant\cactus\plant_cactus06.jpg          	1	1	1	plant_cactus06.jpg   	plant    	6	cactus    	4	cactus06    	45	alive    	1	still	0	natural 	1	n	0	0    	 	0.0	0	55.1570704999977	55.256959499995006	0.0998889999973471
72722	100	49	stimuli\movArt\train\ma_train07.jpg              	1	1	1	ma_train07.jpg       	movArt   	2	train     	34	train07     	346	not_alive	0	moves	1	artefact	0	n	0	0    	 	0.0	0	55.3070605999965	55.406971500000495	0.0999109000040334
72872	100	50	stimuli\plant2\fern\plant_fern10.jpg             	1	1	1	plant_fern10.jpg     	plant2   	7	fern      	14	fern10      	149	alive    	1	still	0	natural 	1	n	0	0    	 	0.0	0	55.4570661999969	55.556960800000496	0.0998946000036085
73022	100	51	stimuli\animals\dog\animal_dog04.jpg             	1	1	1	animal_dog04.jpg     	animals  	0	dog       	11	dog04       	113	alive    	1	moves	1	natural 	1	n	0	0    	 	0.0	0	55.6070607999936	55.7069632999992	0.0999025000055553
73172	100	52	stimuli\movArt\boat\ma_boat09.jpg                	1	1	1	ma_boat09.jpg        	movArt   	2	boat      	2	boat09      	28	not_alive	0	moves	1	artefact	0	n	0	0    	 	0.0	0	55.7570504999967	55.856969599997704	0.0999191000009886
73322	100	53	stimuli\animals2\lemur\animal_lemur03.jpg        	1	1	1	animal_lemur03.jpg   	animals2 	1	lemur     	23	lemur03     	232	alive    	1	moves	1	natural 	1	n	0	0    	 	0.0	0	55.9070619999984	56.0069960999972	0.0999340999987907
73472	100	54	stimuli\plant\flower\plant_flower02.jpg          	1	1	1	plant_flower02.jpg   	plant    	6	flower    	16	flower02    	161	alive    	1	still	0	natural 	1	n	0	0    	 	0.0	0	56.057073399999396	56.157029399997604	0.0999559999982011
73622	100	55	stimuli\animals\dolphin\animal_dolphin04.jpg     	1	1	1	animal_dolphin04.jpg 	animals  	0	dolphin   	12	dolphin04   	123	alive    	1	moves	1	natural 	1	n	0	0    	 	0.0	0	56.2071511999966	56.3069665999938	0.0998153999971691
73772	100	56	stimuli\nonmovArt\headphones\nma_headphones03.jpg	1	1	1	nma_headphones03.jpg 	nonmovArt	4	headphones	18	headphones03	182	not_alive	0	still	0	artefact	0	n	0	0    	 	0.0	0	56.3571095999942	56.4569520999939	0.0998424999997951
73922	100	57	stimuli\plant\grass\plant_grass04.jpg            	1	1	1	plant_grass04.jpg    	plant    	6	grass     	17	grass04     	173	alive    	1	still	0	natural 	1	n	0	0    	 	0.0	0	56.5070560999957	56.6069568999956	0.0999007999998866
74072	100	58	stimuli\nonmovArt\mug\nma_mug08.jpg              	1	1	1	nma_mug08.jpg        	nonmovArt	4	mug       	26	mug08       	267	not_alive	0	still	0	artefact	0	n	0	0    	 	0.0	0	56.657060599995006	56.7569417999985	0.0998812000034377
74222	100	59	stimuli\movArt\helicopter\ma_helicopter06.jpg    	1	1	1	ma_helicopter06.jpg  	movArt   	2	helicopter	19	helicopter06	195	not_alive	0	moves	1	artefact	0	n	0	0    	 	0.0	0	56.807030999996606	56.9069620999944	0.0999310999977751
74372	100	60	stimuli\plant2\moss\plant_moss08.jpg             	1	1	1	plant_moss08.jpg     	plant2   	7	moss      	25	moss08      	257	alive    	1	still	0	natural 	1	n	0	0    	 	0.0	0	56.957048299998895	57.056956399996096	0.0999080999972648
74522	100	61	stimuli\animals2\whale\animal_whale08.jpg        	1	1	1	animal_whale08.jpg   	animals2 	1	whale     	39	whale08     	397	alive    	1	moves	1	natural 	1	n	1	0    	 	0.0	0	57.107032599997204	57.2069479999991	0.0999154000019189
74672	100	62	stimuli\plant2\clover\plant_clover05.jpg         	1	1	1	plant_clover05.jpg   	plant2   	7	clover    	9	clover05    	94	alive    	1	still	0	natural 	1	n	0	0    	 	0.0	0	57.257044499994706	57.356938299999506	0.0998938000047928
74822	100	63	stimuli\nonmovNat\sand\nmn_sand10.jpg            	1	1	1	nmn_sand10.jpg       	nonmovNat	5	sand      	31	sand10      	319	not_alive	0	still	0	natural 	1	n	0	1    	f	0.30371269999886896	1	57.407033299998105	57.506173399997394	0.0991400999992038
74971	100	64	stimuli\animals2\tiger\animal_tiger05.jpg        	1	1	1	animal_tiger05.jpg   	animals2 	1	tiger     	33	tiger05     	334	alive    	1	moves	1	natural 	1	n	0	0    	 	0.0	0	57.5561851999955	57.6561722999977	0.0999871000021812
75121	100	65	stimuli\animals\cat\animal_cat06.jpg             	1	1	1	animal_cat06.jpg     	animals  	0	cat       	6	cat06       	65	alive    	1	moves	1	natural 	1	n	0	0    	 	0.0	0	57.706182999994795	57.806172500000706	0.0999895000059041
75271	100	66	stimuli\movArt\helicopter\ma_helicopter05.jpg    	1	1	1	ma_helicopter05.jpg  	movArt   	2	helicopter	19	helicopter05	194	not_alive	0	moves	1	artefact	0	n	0	0    	 	0.0	0	57.8561814999994	57.95617990000029	0.0999984000009135
75421	100	67	stimuli\animals\cat\animal_cat06.jpg             	1	1	1	animal_cat06.jpg     	animals  	0	cat       	6	cat06       	65	alive    	1	moves	1	natural 	1	n	0	0    	 	0.0	0	58.00619489999371	58.106188699996004	0.0999938000022666
75571	100	68	stimuli\animals2\pigeon\animal_pigeon06.jpg      	1	1	1	animal_pigeon06.jpg  	animals2 	1	pigeon    	28	pigeon06    	285	alive    	1	moves	1	natural 	1	n	0	0    	 	0.0	0	58.15617859999471	58.2561674999961	0.0999889000013354
75721	100	69	stimuli\nonmovNat\crystal\nmn_crystal10.jpg      	1	1	1	nmn_crystal10.jpg    	nonmovNat	5	crystal   	10	crystal10   	109	not_alive	0	still	0	natural 	1	n	0	0    	 	0.0	0	58.30617720000011	58.4061638999992	0.0999866999991354
75871	100	70	stimuli\animals2\pigeon\animal_pigeon01.jpg      	1	1	1	animal_pigeon01.jpg  	animals2 	1	pigeon    	28	pigeon01    	280	alive    	1	moves	1	natural 	1	n	0	0    	 	0.0	0	58.456175799998206	58.5561665999994	0.09999080000125099
76021	100	71	stimuli\animals\eagle\animal_eagle10.jpg         	1	1	1	animal_eagle10.jpg   	animals  	0	eagle     	13	eagle10     	139	alive    	1	moves	1	natural 	1	n	0	0    	 	0.0	0	58.6061751999951	58.706162399998	0.0999872000029427
76171	100	72	stimuli\plant2\clover\plant_clover05.jpg         	1	1	1	plant_clover05.jpg   	plant2   	7	clover    	9	clover05    	94	alive    	1	still	0	natural 	1	n	0	0    	 	0.0	0	58.7561711999951	58.856162799995204	0.0999916000000666
76321	100	73	stimuli\animals2\lemur\animal_lemur06.jpg        	1	1	1	animal_lemur06.jpg   	animals2 	1	lemur     	23	lemur06     	235	alive    	1	moves	1	natural 	1	n	0	0    	 	0.0	0	58.9061689999944	59.0061587999953	0.0999898000009125
76471	100	74	stimuli\plant\vine\plant_vine04.jpg              	1	1	1	plant_vine04.jpg     	plant    	6	vine      	36	vine04      	363	alive    	1	still	0	natural 	1	n	0	0    	 	0.0	0	59.056167799994	59.156182499995396	0.10001470000133801
76621	100	75	stimuli\nonmovNat\cliff\nmn_cliff06.jpg          	1	1	1	nmn_cliff06.jpg      	nonmovNat	5	cliff     	7	cliff06     	75	not_alive	0	still	0	natural 	1	n	0	0    	 	0.0	0	59.20617040000071	59.3061553999942	0.0999849999934667
76771	100	76	stimuli\animals\eagle\animal_eagle07.jpg         	1	1	1	animal_eagle07.jpg   	animals  	0	eagle     	13	eagle07     	136	alive    	1	moves	1	natural 	1	n	0	0    	 	0.0	0	59.356165899996995	59.456153099999895	0.0999872000029427
76921	100	77	stimuli\animals\dog\animal_dog03.jpg             	1	1	1	animal_dog03.jpg     	animals  	0	dog       	11	dog03       	112	alive    	1	moves	1	natural 	1	n	0	0    	 	0.0	0	59.5061658999985	59.6061501999939	0.0999842999954125
77071	100	78	stimuli\nonmovNat\rock\nmn_rock05.jpg            	1	1	1	nmn_rock05.jpg       	nonmovNat	5	rock      	30	rock05      	304	not_alive	0	still	0	natural 	1	n	0	0    	 	0.0	0	59.6561644999965	59.7561824000004	0.100017900003877
77221	100	79	stimuli\movNat\hotspring\mn_hotspring02.jpg      	1	1	1	mn_hotspring02.jpg   	movNat   	3	hotspring 	21	hotspring02 	211	not_alive	0	moves	1	natural 	1	n	0	0    	 	0.0	0	59.806161199994705	59.906148399997605	0.0999872000029427
85155	100	80	stimuli\movNat\river\mn_river06.jpg              	1	2	1	mn_river06.jpg       	movNat   	3	river     	29	river06     	295	not_alive	0	moves	1	natural 	1	n	0	0    	 	0.0	0	67.7394099999947	67.8393982999987	0.0999883000040426
85305	100	81	stimuli\movNat\hotspring\mn_hotspring06.jpg      	1	2	1	mn_hotspring06.jpg   	movNat   	3	hotspring 	21	hotspring06 	215	not_alive	0	moves	1	natural 	1	n	0	0    	 	0.0	0	67.8894224999967	67.98940369999761	0.0999812000009114
85455	100	82	stimuli\nonmovArt\bench\nma_bench08.jpg          	1	2	1	nma_bench08.jpg      	nonmovArt	4	bench     	1	bench08     	17	not_alive	0	still	0	artefact	0	n	0	0    	 	0.0	0	68.03940819999839	68.1393953000006	0.0999871000021812
85605	100	83	stimuli\animals2\whale\animal_whale08.jpg        	1	2	1	animal_whale08.jpg   	animals2 	1	whale     	39	whale08     	397	alive    	1	moves	1	natural 	1	n	0	0    	 	0.0	0	68.1894044000001	68.28939419999371	0.0999897999936365
85755	100	84	stimuli\nonmovArt\lock\nma_lock06.jpg            	1	2	1	nma_lock06.jpg       	nonmovArt	4	lock      	24	lock06      	245	not_alive	0	still	0	artefact	0	n	0	0    	 	0.0	0	68.3394017999963	68.4393913999957	0.0999895999993896
85905	100	85	stimuli\nonmovArt\lock\nma_lock06.jpg            	1	2	1	nma_lock06.jpg       	nonmovArt	4	lock      	24	lock06      	245	not_alive	0	still	0	artefact	0	n	0	0    	 	0.0	0	68.4894069999937	68.5893899000002	0.0999829000065801
86055	100	86	stimuli\animals2\tiger\animal_tiger03.jpg        	1	2	1	animal_tiger03.jpg   	animals2 	1	tiger     	33	tiger03     	332	alive    	1	moves	1	natural 	1	n	0	0    	 	0.0	0	68.6394003999958	68.7393898999944	0.0999894999986281
86205	100	87	stimuli\movNat\waterfall\mn_waterfall09.jpg      	1	2	1	mn_waterfall09.jpg   	movNat   	3	waterfall 	37	waterfall09 	378	not_alive	0	moves	1	natural 	1	n	0	0    	 	0.0	0	68.789400099995	68.8893873999987	0.0999873000037041
86355	100	88	stimuli\animals2\pigeon\animal_pigeon04.jpg      	1	2	1	animal_pigeon04.jpg  	animals2 	1	pigeon    	28	pigeon04    	283	alive    	1	moves	1	natural 	1	n	0	0    	 	0.0	0	68.9393968000004	69.0393863999998	0.0999895999993896
86505	100	89	stimuli\movNat\hotspring\mn_hotspring06.jpg      	1	2	1	mn_hotspring06.jpg   	movNat   	3	hotspring 	21	hotspring06 	215	not_alive	0	moves	1	natural 	1	n	0	0    	 	0.0	0	69.08939499999539	69.1893842999998	0.0999893000043812
86655	100	90	stimuli\movArt\bus\ma_bus02.jpg                  	1	2	1	ma_bus02.jpg         	movArt   	2	bus       	3	bus02       	31	not_alive	0	moves	1	artefact	0	n	0	0    	 	0.0	0	69.23939389999579	69.3393830999994	0.0999892000036197
86805	100	91	stimuli\plant2\palmtree\plant_palmtree03.jpg     	1	2	1	plant_palmtree03.jpg 	plant2   	7	palmtree  	27	palmtree03  	272	alive    	1	still	0	natural 	1	n	0	0    	 	0.0	0	69.3893907999955	69.4901459999965	0.100755200001004
86955	100	92	stimuli\movArt\bus\ma_bus01.jpg                  	1	2	1	ma_bus01.jpg         	movArt   	2	bus       	3	bus01       	30	not_alive	0	moves	1	artefact	0	n	0	0    	 	0.0	0	69.54024749999371	69.64013870000049	0.09989120000682301
87105	100	93	stimuli\nonmovNat\cliff\nmn_cliff08.jpg          	1	2	1	nmn_cliff08.jpg      	nonmovNat	5	cliff     	7	cliff08     	77	not_alive	0	still	0	natural 	1	n	0	0    	 	0.0	0	69.690236399998	69.790138999997	0.0999025999990408
87255	100	94	stimuli\nonmovNat\sand\nmn_sand02.jpg            	1	2	1	nmn_sand02.jpg       	nonmovNat	5	sand      	31	sand02      	311	not_alive	0	still	0	natural 	1	n	0	0    	 	0.0	0	69.8402510999949	69.94013269999411	0.0998815999992075
87405	100	95	stimuli\plant\vine\plant_vine04.jpg              	1	2	1	plant_vine04.jpg     	plant    	6	vine      	36	vine04      	363	alive    	1	still	0	natural 	1	n	0	0    	 	0.0	0	69.9902460999947	70.0901322999998	0.0998862000051303
87555	100	96	stimuli\movArt\boat\ma_boat08.jpg                	1	2	1	ma_boat08.jpg        	movArt   	2	boat      	2	boat08      	27	not_alive	0	moves	1	artefact	0	n	0	0    	 	0.0	0	70.1402493999995	70.24016149999811	0.0999120999986189
87706	100	97	stimuli\movArt\car\ma_car10.jpg                  	1	2	1	ma_car10.jpg         	movArt   	2	car       	5	car10       	59	not_alive	0	moves	1	artefact	0	n	0	0    	 	0.0	0	70.2902958999985	70.39015449999721	0.0998585999986971
87855	100	98	stimuli\plant\flower\plant_flower07.jpg          	1	2	1	plant_flower07.jpg   	plant    	6	flower    	16	flower07    	166	alive    	1	still	0	natural 	1	n	0	0    	 	0.0	0	70.44024359999459	70.5401511999953	0.0999076000007335
88005	100	99	stimuli\plant2\moss\plant_moss10.jpg             	1	2	1	plant_moss10.jpg     	plant2   	7	moss      	25	moss10      	259	alive    	1	still	0	natural 	1	n	0	0    	 	0.0	0	70.59023509999679	70.6901242999957	0.09988919999886998
88155	100	100	stimuli\animals2\whale\animal_whale06.jpg        	1	2	1	animal_whale06.jpg   	animals2 	1	whale     	39	whale06     	395	alive    	1	moves	1	natural 	1	n	0	0    	 	0.0	0	70.74022010000041	70.8401238000006	0.0999037000001408
88305	100	101	stimuli\movArt\bus\ma_bus04.jpg                  	1	2	1	ma_bus04.jpg         	movArt   	2	bus       	3	bus04       	33	not_alive	0	moves	1	artefact	0	n	0	0    	 	0.0	0	70.8902385999972	70.9901484000002	0.0999098000029334
88455	100	102	stimuli\nonmovNat\sand\nmn_sand01.jpg            	1	2	1	nmn_sand01.jpg       	nonmovNat	5	sand      	31	sand01      	310	not_alive	0	still	0	natural 	1	n	1	0    	 	0.0	0	71.0402449999965	71.1401345999984	0.0998896000019158
88605	100	103	stimuli\nonmovArt\clothespeg\nma_clothespeg04.jpg	1	2	1	nma_clothespeg04.jpg 	nonmovArt	4	clothespeg	8	clothespeg04	83	not_alive	0	still	0	artefact	0	n	0	0    	 	0.0	0	71.1902289999998	71.29013689999559	0.0999078999957419
88755	100	104	stimuli\movNat\waves\mn_waves03.jpg              	1	2	1	mn_waves03.jpg       	movNat   	3	waves     	38	waves03     	382	not_alive	0	moves	1	natural 	1	n	0	1    	f	0.391983399997116	1	71.3402237999981	71.44013179999459	0.0999079999965033
88905	100	105	stimuli\movArt\train\ma_train05.jpg              	1	2	1	ma_train05.jpg       	movArt   	2	train     	34	train05     	344	not_alive	0	moves	1	artefact	0	n	0	0    	 	0.0	0	71.49023160000071	71.59011679999821	0.0998851999975158
89055	100	106	stimuli\movNat\waves\mn_waves05.jpg              	1	2	1	mn_waves05.jpg       	movNat   	3	waves     	38	waves05     	384	not_alive	0	moves	1	natural 	1	n	0	0    	 	0.0	0	71.6402249999956	71.74012829999991	0.0999033000043709
89205	100	107	stimuli\nonmovNat\crystal\nmn_crystal03.jpg      	1	2	1	nmn_crystal03.jpg    	nonmovNat	5	crystal   	10	crystal03   	102	not_alive	0	still	0	natural 	1	n	0	0    	 	0.0	0	71.7902250999978	71.8901305999971	0.099905499999295
89355	100	108	stimuli\plant\vine\plant_vine02.jpg              	1	2	1	plant_vine02.jpg     	plant    	6	vine      	36	vine02      	361	alive    	1	still	0	natural 	1	n	0	0    	 	0.0	0	71.9402167999942	72.0401681999938	0.0999513999995542
89506	100	109	stimuli\plant2\lemontree\plant_lemontree04.jpg   	1	2	1	plant_lemontree04.jpg	plant2   	7	lemontree 	22	lemontree04 	223	alive    	1	still	0	natural 	1	n	0	0    	 	0.0	0	72.0902990999966	72.19013039999851	0.0998313000018242
89655	100	110	stimuli\movNat\river\mn_river09.jpg              	1	2	1	mn_river09.jpg       	movNat   	3	river     	29	river09     	298	not_alive	0	moves	1	natural 	1	n	0	0    	 	0.0	0	72.2402279999951	72.3401182999951	0.09989029999997
89805	100	111	stimuli\movNat\waterfall\mn_waterfall06.jpg      	1	2	1	mn_waterfall06.jpg   	movNat   	3	waterfall 	37	waterfall06 	375	not_alive	0	moves	1	natural 	1	n	0	0    	 	0.0	0	72.39021969999891	72.4901242999986	0.0999045999997179
89955	100	112	stimuli\nonmovArt\clothespeg\nma_clothespeg01.jpg	1	2	1	nma_clothespeg01.jpg 	nonmovArt	4	clothespeg	8	clothespeg01	80	not_alive	0	still	0	artefact	0	n	0	0    	 	0.0	0	72.5402203999984	72.6401231999989	0.0999028000005637
90105	100	113	stimuli\nonmovArt\bench\nma_bench05.jpg          	1	2	1	nma_bench05.jpg      	nonmovArt	4	bench     	1	bench05     	14	not_alive	0	still	0	artefact	0	n	0	0    	 	0.0	0	72.6902042999936	72.7901239999992	0.0999197000055574
90255	100	114	stimuli\nonmovArt\bench\nma_bench09.jpg          	1	2	1	nma_bench09.jpg      	nonmovArt	4	bench     	1	bench09     	18	not_alive	0	still	0	artefact	0	n	1	0    	 	0.0	0	72.8401936999944	72.9401122999989	0.0999186000044574
90405	100	115	stimuli\nonmovNat\cliff\nmn_cliff08.jpg          	1	2	1	nmn_cliff08.jpg      	nonmovNat	5	cliff     	7	cliff08     	77	not_alive	0	still	0	natural 	1	n	0	0    	 	0.0	0	72.9901941999997	73.09012749999971	0.0999332999999751
90555	100	116	stimuli\nonmovNat\shell\nmn_shell05.jpg          	1	2	1	nmn_shell05.jpg      	nonmovNat	5	shell     	32	shell05     	324	not_alive	0	still	0	natural 	1	n	0	1    	f	0.391990500000247	1	73.1401991999955	73.240126699995	0.0999274999994668
90705	100	117	stimuli\movNat\fire\mn_fire01.jpg                	1	2	1	mn_fire01.jpg        	movNat   	3	fire      	15	fire01      	150	not_alive	0	moves	1	natural 	1	n	0	0    	 	0.0	0	73.2902101	73.3901046999963	0.0998945999963325
90855	100	118	stimuli\plant\tree\plant_tree05.jpg              	1	2	1	plant_tree05.jpg     	plant    	6	tree      	35	tree05      	354	alive    	1	still	0	natural 	1	n	0	0    	 	0.0	0	73.44021689999501	73.5401119999951	0.0998951000001398
91005	100	119	stimuli\animals\dog\animal_dog05.jpg             	1	2	1	animal_dog05.jpg     	animals  	0	dog       	11	dog05       	114	alive    	1	moves	1	natural 	1	n	0	0    	 	0.0	0	73.5902107000002	73.6901490999953	0.0999383999951533
91155	100	120	stimuli\animals\horse\animal_horse10.jpg         	1	2	1	animal_horse10.jpg   	animals  	0	horse     	20	horse10     	209	alive    	1	moves	1	natural 	1	n	0	0    	 	0.0	0	73.7401970999999	73.8401620999939	0.09996499999397197
91306	100	121	stimuli\plant2\palmtree\plant_palmtree06.jpg     	1	2	1	plant_palmtree06.jpg 	plant2   	7	palmtree  	27	palmtree06  	275	alive    	1	still	0	natural 	1	n	0	0    	 	0.0	0	73.8902631999954	73.99009870000009	0.0998355000047013
91455	100	122	stimuli\plant\cactus\plant_cactus02.jpg          	1	2	1	plant_cactus02.jpg   	plant    	6	cactus    	4	cactus02    	41	alive    	1	still	0	natural 	1	n	0	0    	 	0.0	0	74.0401960999952	74.1400839999988	0.0998879000035231
91605	100	123	stimuli\animals\eagle\animal_eagle09.jpg         	1	2	1	animal_eagle09.jpg   	animals  	0	eagle     	13	eagle09     	138	alive    	1	moves	1	natural 	1	n	0	0    	 	0.0	0	74.1902037999971	74.29009789999691	0.0998940999998012
91755	100	124	stimuli\animals2\lemur\animal_lemur08.jpg        	1	2	1	animal_lemur08.jpg   	animals2 	1	lemur     	23	lemur08     	237	alive    	1	moves	1	natural 	1	n	0	0    	 	0.0	0	74.3401885999992	74.4400954999946	0.0999068999954033
91905	100	125	stimuli\animals\horse\animal_horse06.jpg         	1	2	1	animal_horse06.jpg   	animals  	0	horse     	20	horse06     	205	alive    	1	moves	1	natural 	1	n	0	0    	 	0.0	0	74.49019339999359	74.59009629999491	0.0999029000013251
92055	100	126	stimuli\animals\dolphin\animal_dolphin05.jpg     	1	2	1	animal_dolphin05.jpg 	animals  	0	dolphin   	12	dolphin05   	124	alive    	1	moves	1	natural 	1	n	0	0    	 	0.0	0	74.6401923999947	74.7401067999963	0.0999144000015803
92205	100	127	stimuli\plant\cactus\plant_cactus01.jpg          	1	2	1	plant_cactus01.jpg   	plant    	6	cactus    	4	cactus01    	40	alive    	1	still	0	natural 	1	n	0	0    	 	0.0	0	74.79019479999991	74.89009989999609	0.0999050999962492
92355	100	128	stimuli\nonmovArt\lock\nma_lock03.jpg            	1	2	1	nma_lock03.jpg       	nonmovArt	4	lock      	24	lock03      	242	not_alive	0	still	0	artefact	0	n	0	0    	 	0.0	0	74.94020489999821	75.0401056999981	0.0999007999998866
92505	100	129	stimuli\movNat\river\mn_river07.jpg              	1	2	1	mn_river07.jpg       	movNat   	3	river     	29	river07     	296	not_alive	0	moves	1	natural 	1	n	0	0    	 	0.0	0	75.0901930999971	75.19007699999929	0.0998839000021689
92655	100	130	stimuli\movArt\boat\ma_boat07.jpg                	1	2	1	ma_boat07.jpg        	movArt   	2	boat      	2	boat07      	26	not_alive	0	moves	1	artefact	0	n	0	0    	 	0.0	0	75.2401773999954	75.3400697999968	0.0998924000014085
92805	100	131	stimuli\plant\tree\plant_tree10.jpg              	1	2	1	plant_tree10.jpg     	plant    	6	tree      	35	tree10      	359	alive    	1	still	0	natural 	1	n	0	0    	 	0.0	0	75.39018609999759	75.4900879999987	0.0999019000009866
92955	100	132	stimuli\nonmovArt\clothespeg\nma_clothespeg04.jpg	1	2	1	nma_clothespeg04.jpg 	nonmovArt	4	clothespeg	8	clothespeg04	83	not_alive	0	still	0	artefact	0	n	0	0    	 	0.0	0	75.54016720000071	75.6402185999978	0.10005139999702801
93105	100	133	stimuli\movNat\waves\mn_waves03.jpg              	1	2	1	mn_waves03.jpg       	movNat   	3	waves     	38	waves03     	382	not_alive	0	moves	1	natural 	1	n	0	0    	 	0.0	0	75.6901782999994	75.79007989999809	0.0999015999987023
93255	100	134	stimuli\nonmovNat\sand\nmn_sand04.jpg            	1	2	1	nmn_sand04.jpg       	nonmovNat	5	sand      	31	sand04      	313	not_alive	0	still	0	natural 	1	n	0	0    	 	0.0	0	75.84016649999829	75.940085299997	0.0999187999987043
93405	100	135	stimuli\nonmovNat\crystal\nmn_crystal04.jpg      	1	2	1	nmn_crystal04.jpg    	nonmovNat	5	crystal   	10	crystal04   	103	not_alive	0	still	0	natural 	1	n	0	0    	 	0.0	0	75.99018579999391	76.0900830999963	0.0998973000023397
93555	100	136	stimuli\plant\grass\plant_grass10.jpg            	1	2	1	plant_grass10.jpg    	plant    	6	grass     	17	grass10     	179	alive    	1	still	0	natural 	1	n	0	0    	 	0.0	0	76.1401563999971	76.2400815000001	0.0999251000030199
93705	100	137	stimuli\nonmovArt\bench\nma_bench05.jpg          	1	2	1	nma_bench05.jpg      	nonmovArt	4	bench     	1	bench05     	14	not_alive	0	still	0	artefact	0	n	0	0    	 	0.0	0	76.2901601999983	76.3900750999965	0.0999148999981116
93855	100	138	stimuli\plant\flower\plant_flower06.jpg          	1	2	1	plant_flower06.jpg   	plant    	6	flower    	16	flower06    	165	alive    	1	still	0	natural 	1	n	0	0    	 	0.0	0	76.4401702999967	76.5400818999988	0.0999116000020876
94005	100	139	stimuli\movNat\waterfall\mn_waterfall04.jpg      	1	2	1	mn_waterfall04.jpg   	movNat   	3	waterfall 	37	waterfall04 	373	not_alive	0	moves	1	natural 	1	n	0	0    	 	0.0	0	76.5901658999937	76.6900840999952	0.0999182000014116
94155	100	140	stimuli\movNat\waves\mn_waves05.jpg              	1	2	1	mn_waves05.jpg       	movNat   	3	waves     	38	waves05     	384	not_alive	0	moves	1	natural 	1	n	1	0    	 	0.0	0	76.7401544999957	76.84007609999391	0.099921599998197
94305	100	141	stimuli\movNat\river\mn_river01.jpg              	1	2	1	mn_river01.jpg       	movNat   	3	river     	29	river01     	290	not_alive	0	moves	1	natural 	1	n	0	0    	 	0.0	0	76.890161299998	76.990072499997	0.0999111999990418
94455	100	142	stimuli\nonmovNat\crystal\nmn_crystal06.jpg      	1	2	1	nmn_crystal06.jpg    	nonmovNat	5	crystal   	10	crystal06   	105	not_alive	0	still	0	natural 	1	n	0	1    	f	0.39198400000168504	1	77.040155799994	77.14007539999879	0.0999196000047959
94605	100	143	stimuli\plant2\fern\plant_fern03.jpg             	1	2	1	plant_fern03.jpg     	plant2   	7	fern      	14	fern03      	142	alive    	1	still	0	natural 	1	n	0	0    	 	0.0	0	77.1901660999938	77.29007879999699	0.0999127000031876
94755	100	144	stimuli\plant\vine\plant_vine05.jpg              	1	2	1	plant_vine05.jpg     	plant    	6	vine      	36	vine05      	364	alive    	1	still	0	natural 	1	n	0	0    	 	0.0	0	77.3401546999958	77.44013569999521	0.0999809999993886
94905	100	145	stimuli\animals\dog\animal_dog02.jpg             	1	2	1	animal_dog02.jpg     	animals  	0	dog       	11	dog02       	111	alive    	1	moves	1	natural 	1	n	0	0    	 	0.0	0	77.4901559999998	77.590056699999	0.0999006999991252
95055	100	146	stimuli\animals2\lemur\animal_lemur10.jpg        	1	2	1	animal_lemur10.jpg   	animals2 	1	lemur     	23	lemur10     	239	alive    	1	moves	1	natural 	1	n	0	0    	 	0.0	0	77.6401514999961	77.7400834999935	0.0999319999973522
95205	100	147	stimuli\animals2\tiger\animal_tiger03.jpg        	1	2	1	animal_tiger03.jpg   	animals2 	1	tiger     	33	tiger03     	332	alive    	1	moves	1	natural 	1	n	0	0    	 	0.0	0	77.7901558999947	77.8900532999978	0.0998974000031012
95355	100	148	stimuli\plant\tree\plant_tree02.jpg              	1	2	1	plant_tree02.jpg     	plant    	6	tree      	35	tree02      	351	alive    	1	still	0	natural 	1	n	0	0    	 	0.0	0	77.9401537999947	78.0400669999945	0.0999131999997189
95505	100	149	stimuli\plant2\moss\plant_moss03.jpg             	1	2	1	plant_moss03.jpg     	plant2   	7	moss      	25	moss03      	252	alive    	1	still	0	natural 	1	n	0	0    	 	0.0	0	78.09015050000009	78.1900543999946	0.0999038999943877
95655	100	150	stimuli\animals2\pigeon\animal_pigeon04.jpg      	1	2	1	animal_pigeon04.jpg  	animals2 	1	pigeon    	28	pigeon04    	283	alive    	1	moves	1	natural 	1	n	0	0    	 	0.0	0	78.24015879999929	78.3400567999997	0.0998980000003939
95805	100	151	stimuli\nonmovArt\lock\nma_lock02.jpg            	1	2	1	nma_lock02.jpg       	nonmovArt	4	lock      	24	lock02      	241	not_alive	0	still	0	artefact	0	n	0	0    	 	0.0	0	78.3901486999966	78.49005449999821	0.0999058000015793
95955	100	152	stimuli\nonmovArt\headphones\nma_headphones04.jpg	1	2	1	nma_headphones04.jpg 	nonmovArt	4	headphones	18	headphones04	183	not_alive	0	still	0	artefact	0	n	0	0    	 	0.0	0	78.54016859999679	78.6400555	0.0998869000031845
96105	100	153	stimuli\movArt\boat\ma_boat04.jpg                	1	2	1	ma_boat04.jpg        	movArt   	2	boat      	2	boat04      	23	not_alive	0	moves	1	artefact	0	n	0	0    	 	0.0	0	78.69014409999359	78.7900509999963	0.0999069000026793
96255	100	154	stimuli\movNat\waves\mn_waves09.jpg              	1	2	1	mn_waves09.jpg       	movNat   	3	waves     	38	waves09     	388	not_alive	0	moves	1	natural 	1	n	0	0    	 	0.0	0	78.84014939999909	78.9400447999942	0.0998953999951481
96405	100	155	stimuli\movNat\river\mn_river05.jpg              	1	2	1	mn_river05.jpg       	movNat   	3	river     	29	river05     	294	not_alive	0	moves	1	natural 	1	n	0	0    	 	0.0	0	78.9901414999986	79.0900563999967	0.0999148999981116
96555	100	156	stimuli\nonmovArt\mug\nma_mug10.jpg              	1	2	1	nma_mug10.jpg        	nonmovArt	4	mug       	26	mug10       	269	not_alive	0	still	0	artefact	0	n	0	0    	 	0.0	0	79.1401240999985	79.24011210000029	0.0999880000017583
96705	100	157	stimuli\movNat\hotspring\mn_hotspring10.jpg      	1	2	1	mn_hotspring10.jpg   	movNat   	3	hotspring 	21	hotspring10 	219	not_alive	0	moves	1	natural 	1	n	0	0    	 	0.0	0	79.29014599999941	79.3900472999958	0.0999012999964179
96855	100	158	stimuli\nonmovArt\headphones\nma_headphones06.jpg	1	2	1	nma_headphones06.jpg 	nonmovArt	4	headphones	18	headphones06	185	not_alive	0	still	0	artefact	0	n	0	0    	 	0.0	0	79.44013279999491	79.5400320999979	0.0998993000030168
97005	100	159	stimuli\nonmovArt\headphones\nma_headphones04.jpg	1	2	1	nma_headphones04.jpg 	nonmovArt	4	headphones	18	headphones04	183	not_alive	0	still	0	artefact	0	n	0	0    	 	0.0	0	79.5901174999963	79.6900442999977	0.0999268000014126
98739	100	160	stimuli\movArt\helicopter\ma_helicopter03.jpg    	1	3	1	ma_helicopter03.jpg  	movArt   	2	helicopter	19	helicopter03	192	not_alive	0	moves	1	artefact	0	n	0	0    	 	0.0	0	81.3234700999965	81.4233594999969	0.0998894000003929
98889	100	161	stimuli\movArt\bus\ma_bus01.jpg                  	1	3	1	ma_bus01.jpg         	movArt   	2	bus       	3	bus01       	30	not_alive	0	moves	1	artefact	0	n	0	0    	 	0.0	0	81.4734433999984	81.5733436999944	0.0999002999960794
99039	100	162	stimuli\nonmovNat\rock\nmn_rock05.jpg            	1	3	1	nmn_rock05.jpg       	nonmovNat	5	rock      	30	rock05      	304	not_alive	0	still	0	natural 	1	n	0	0    	 	0.0	0	81.623445899997	81.72336899999941	0.0999231000023428
99189	100	163	stimuli\movArt\helicopter\ma_helicopter07.jpg    	1	3	1	ma_helicopter07.jpg  	movArt   	2	helicopter	19	helicopter07	196	not_alive	0	moves	1	artefact	0	n	0	0    	 	0.0	0	81.7734424999944	81.8733442999946	0.0999018000002252
99339	100	164	stimuli\movArt\car\ma_car09.jpg                  	1	3	1	ma_car09.jpg         	movArt   	2	car       	5	car09       	58	not_alive	0	moves	1	artefact	0	n	0	0    	 	0.0	0	81.9234389999983	82.02334269999851	0.0999037000001408
99489	100	165	stimuli\nonmovNat\cliff\nmn_cliff02.jpg          	1	3	1	nmn_cliff02.jpg      	nonmovNat	5	cliff     	7	cliff02     	71	not_alive	0	still	0	natural 	1	n	0	0    	 	0.0	0	82.0734496000005	82.17334019999541	0.0998905999949784
99639	100	166	stimuli\movArt\car\ma_car09.jpg                  	1	3	1	ma_car09.jpg         	movArt   	2	car       	5	car09       	58	not_alive	0	moves	1	artefact	0	n	0	0    	 	0.0	0	82.2234422999973	82.3233413999988	0.0998991000014939
99789	100	167	stimuli\animals2\tiger\animal_tiger10.jpg        	1	3	1	animal_tiger10.jpg   	animals2 	1	tiger     	33	tiger10     	339	alive    	1	moves	1	natural 	1	n	0	0    	 	0.0	0	82.3734326999984	82.4733527999997	0.0999201000013272
99939	100	168	stimuli\plant\grass\plant_grass02.jpg            	1	3	1	plant_grass02.jpg    	plant    	6	grass     	17	grass02     	171	alive    	1	still	0	natural 	1	n	0	0    	 	0.0	0	82.52352309999699	82.6234363999974	0.0999133000004803
100089	100	169	stimuli\movArt\car\ma_car09.jpg                  	1	3	1	ma_car09.jpg         	movArt   	2	car       	5	car09       	58	not_alive	0	moves	1	artefact	0	n	0	0    	 	0.0	0	82.6735451999993	82.77338659999799	0.0998413999986951
100239	100	170	stimuli\animals2\lemur\animal_lemur02.jpg        	1	3	1	animal_lemur02.jpg   	animals2 	1	lemur     	23	lemur02     	231	alive    	1	moves	1	natural 	1	n	0	0    	 	0.0	0	82.8234291999979	82.92333389999841	0.0999047000004793
100389	100	171	stimuli\animals2\whale\animal_whale10.jpg        	1	3	1	animal_whale10.jpg   	animals2 	1	whale     	39	whale10     	399	alive    	1	moves	1	natural 	1	n	0	0    	 	0.0	0	82.97344049999809	83.0733387	0.0998982000019168
100539	100	172	stimuli\movArt\bus\ma_bus06.jpg                  	1	3	1	ma_bus06.jpg         	movArt   	2	bus       	3	bus06       	35	not_alive	0	moves	1	artefact	0	n	0	0    	 	0.0	0	83.1234229999973	83.2233295999977	0.0999066000003949
100689	100	173	stimuli\nonmovNat\shell\nmn_shell07.jpg          	1	3	1	nmn_shell07.jpg      	nonmovNat	5	shell     	32	shell07     	326	not_alive	0	still	0	natural 	1	n	0	0    	 	0.0	0	83.2734302999961	83.37332739999691	0.0998971000008168
100839	100	174	stimuli\animals\dolphin\animal_dolphin03.jpg     	1	3	1	animal_dolphin03.jpg 	animals  	0	dolphin   	12	dolphin03   	122	alive    	1	moves	1	natural 	1	n	0	0    	 	0.0	0	83.42342590000041	83.52332899999601	0.0999030999955721
100989	100	175	stimuli\nonmovNat\cliff\nmn_cliff09.jpg          	1	3	1	nmn_cliff09.jpg      	nonmovNat	5	cliff     	7	cliff09     	78	not_alive	0	still	0	natural 	1	n	0	0    	 	0.0	0	83.5734286000006	83.67334679999479	0.0999181999941356
101139	100	176	stimuli\animals2\whale\animal_whale07.jpg        	1	3	1	animal_whale07.jpg   	animals2 	1	whale     	39	whale07     	396	alive    	1	moves	1	natural 	1	n	0	0    	 	0.0	0	83.72341219999359	83.823335999994	0.09992380000039698
101289	100	177	stimuli\movArt\train\ma_train08.jpg              	1	3	1	ma_train08.jpg       	movArt   	2	train     	34	train08     	347	not_alive	0	moves	1	artefact	0	n	0	0    	 	0.0	0	83.87342039999929	83.9733071999945	0.0998867999951471
101439	100	178	stimuli\plant\vine\plant_vine03.jpg              	1	3	1	plant_vine03.jpg     	plant    	6	vine      	36	vine03      	362	alive    	1	still	0	natural 	1	n	0	0    	 	0.0	0	84.0234300999946	84.1233281999957	0.0998981000011554
101589	100	179	stimuli\nonmovArt\bench\nma_bench04.jpg          	1	3	1	nma_bench04.jpg      	nonmovArt	4	bench     	1	bench04     	13	not_alive	0	still	0	artefact	0	n	0	0    	 	0.0	0	84.17341049999959	84.2733580999993	0.09994759999972301
101739	100	180	stimuli\movNat\fire\mn_fire09.jpg                	1	3	1	mn_fire09.jpg        	movNat   	3	fire      	15	fire09      	158	not_alive	0	moves	1	natural 	1	n	0	0    	 	0.0	0	84.32349199999591	84.4234354	0.0999434000041219
101889	100	181	stimuli\nonmovArt\clothespeg\nma_clothespeg06.jpg	1	3	1	nma_clothespeg06.jpg 	nonmovArt	4	clothespeg	8	clothespeg06	85	not_alive	0	still	0	artefact	0	n	0	0    	 	0.0	0	84.47351599999821	84.57331459999841	0.0997986000002129
102039	100	182	stimuli\animals2\bee\animal_bee08.jpg            	1	3	1	animal_bee08.jpg     	animals2 	1	bee       	0	bee08       	7	alive    	1	moves	1	natural 	1	n	0	0    	 	0.0	0	84.623424999998	84.7233218999973	0.0998968999992939
102189	100	183	stimuli\plant2\lemontree\plant_lemontree08.jpg   	1	3	1	plant_lemontree08.jpg	plant2   	7	lemontree 	22	lemontree08 	227	alive    	1	still	0	natural 	1	n	1	0    	 	0.0	0	84.77339519999799	84.8733294999984	0.0999343000003136
102339	100	184	stimuli\nonmovNat\shell\nmn_shell02.jpg          	1	3	1	nmn_shell02.jpg      	nonmovNat	5	shell     	32	shell02     	321	not_alive	0	still	0	natural 	1	n	0	0    	 	0.0	0	84.9234197999977	85.0233100999976	0.09989029999997
102489	100	185	stimuli\nonmovNat\shell\nmn_shell07.jpg          	1	3	1	nmn_shell07.jpg      	nonmovNat	5	shell     	32	shell07     	326	not_alive	0	still	0	natural 	1	n	0	1    	f	0.300287699996261	1	85.0734104000003	85.1733107999971	0.0999003999968408
102639	100	186	stimuli\nonmovArt\mug\nma_mug05.jpg              	1	3	1	nma_mug05.jpg        	nonmovArt	4	mug       	26	mug05       	264	not_alive	0	still	0	artefact	0	n	0	0    	 	0.0	0	85.2234016000002	85.32330589999759	0.0999042999974335
102789	100	187	stimuli\nonmovArt\clothespeg\nma_clothespeg03.jpg	1	3	1	nma_clothespeg03.jpg 	nonmovArt	4	clothespeg	8	clothespeg03	82	not_alive	0	still	0	artefact	0	n	0	0    	 	0.0	0	85.3733804999938	85.4732986999952	0.0999182000014116
102939	100	188	stimuli\animals2\tiger\animal_tiger07.jpg        	1	3	1	animal_tiger07.jpg   	animals2 	1	tiger     	33	tiger07     	336	alive    	1	moves	1	natural 	1	n	0	0    	 	0.0	0	85.5233802000002	85.6233088999943	0.0999286999940523
103089	100	189	stimuli\plant\cactus\plant_cactus02.jpg          	1	3	1	plant_cactus02.jpg   	plant    	6	cactus    	4	cactus02    	41	alive    	1	still	0	natural 	1	n	0	0    	 	0.0	0	85.6734055999987	85.7733214999971	0.0999158999984502
103239	100	190	stimuli\animals\dolphin\animal_dolphin10.jpg     	1	3	1	animal_dolphin10.jpg 	animals  	0	dolphin   	12	dolphin10   	129	alive    	1	moves	1	natural 	1	n	0	0    	 	0.0	0	85.8233948999987	85.92331359999659	0.0999186999979429
103389	100	191	stimuli\animals2\bee\animal_bee07.jpg            	1	3	1	animal_bee07.jpg     	animals2 	1	bee       	0	bee07       	6	alive    	1	moves	1	natural 	1	n	0	0    	 	0.0	0	85.97340619999892	86.07333409999409	0.0999278999952366
103539	100	192	stimuli\movNat\waterfall\mn_waterfall04.jpg      	1	3	1	mn_waterfall04.jpg   	movNat   	3	waterfall 	37	waterfall04 	373	not_alive	0	moves	1	natural 	1	n	0	0    	 	0.0	0	86.12336510000021	86.2233005999951	0.0999354999948991
103689	100	193	stimuli\plant2\fern\plant_fern08.jpg             	1	3	1	plant_fern08.jpg     	plant2   	7	fern      	14	fern08      	147	alive    	1	still	0	natural 	1	n	0	0    	 	0.0	0	86.27345159999821	86.37328870000059	0.0998371000023326
103839	100	194	stimuli\plant\flower\plant_flower04.jpg          	1	3	1	plant_flower04.jpg   	plant    	6	flower    	16	flower04    	163	alive    	1	still	0	natural 	1	n	0	0    	 	0.0	0	86.4234037999995	86.5232711999997	0.0998674000002211
103989	100	195	stimuli\nonmovNat\sand\nmn_sand10.jpg            	1	3	1	nmn_sand10.jpg       	nonmovNat	5	sand      	31	sand10      	319	not_alive	0	still	0	natural 	1	n	0	0    	 	0.0	0	86.5733987999993	86.67328819999969	0.0998894000003929
104139	100	196	stimuli\animals\cat\animal_cat10.jpg             	1	3	1	animal_cat10.jpg     	animals  	0	cat       	6	cat10       	69	alive    	1	moves	1	natural 	1	n	0	0    	 	0.0	0	86.7233949000001	86.8233006999944	0.0999057999943033
104289	100	197	stimuli\plant2\clover\plant_clover04.jpg         	1	3	1	plant_clover04.jpg   	plant2   	7	clover    	9	clover04    	93	alive    	1	still	0	natural 	1	n	0	0    	 	0.0	0	86.8733773999993	86.9732650000006	0.0998876000012387
104439	100	198	stimuli\plant\tree\plant_tree03.jpg              	1	3	1	plant_tree03.jpg     	plant    	6	tree      	35	tree03      	352	alive    	1	still	0	natural 	1	n	0	0    	 	0.0	0	87.02339519999799	87.1232938999965	0.0998986999984481
104589	100	199	stimuli\animals\eagle\animal_eagle06.jpg         	1	3	1	animal_eagle06.jpg   	animals  	0	eagle     	13	eagle06     	135	alive    	1	moves	1	natural 	1	n	0	0    	 	0.0	0	87.1733785999968	87.2732939999987	0.0999154000019189
104739	100	200	stimuli\animals\dog\animal_dog06.jpg             	1	3	1	animal_dog06.jpg     	animals  	0	dog       	11	dog06       	115	alive    	1	moves	1	natural 	1	n	0	0    	 	0.0	0	87.3233689999979	87.4232935999971	0.0999245999992126
104889	100	201	stimuli\animals\cat\animal_cat08.jpg             	1	3	1	animal_cat08.jpg     	animals  	0	cat       	6	cat08       	67	alive    	1	moves	1	natural 	1	n	0	0    	 	0.0	0	87.4734065999946	87.5732877999981	0.0998812000034377
105039	100	202	stimuli\nonmovArt\mug\nma_mug02.jpg              	1	3	1	nma_mug02.jpg        	nonmovArt	4	mug       	26	mug02       	261	not_alive	0	still	0	artefact	0	n	0	0    	 	0.0	0	87.6233833000006	87.72329869999521	0.0999153999946429
105189	100	203	stimuli\nonmovNat\crystal\nmn_crystal10.jpg      	1	3	1	nmn_crystal10.jpg    	nonmovNat	5	crystal   	10	crystal10   	109	not_alive	0	still	0	natural 	1	n	0	0    	 	0.0	0	87.77336929999728	87.87320019999609	0.0998308999987784
105339	100	204	stimuli\plant2\moss\plant_moss07.jpg             	1	3	1	plant_moss07.jpg     	plant2   	7	moss      	25	moss07      	256	alive    	1	still	0	natural 	1	n	0	0    	 	0.0	0	87.9235489999992	88.023483799996	0.0999347999968449
105489	100	205	stimuli\movNat\fire\mn_fire09.jpg                	1	3	1	mn_fire09.jpg        	movNat   	3	fire      	15	fire09      	158	not_alive	0	moves	1	natural 	1	n	0	0    	 	0.0	0	88.0735144999999	88.1732824999999	0.09976800000003999
105639	100	206	stimuli\plant2\moss\plant_moss04.jpg             	1	3	1	plant_moss04.jpg     	plant2   	7	moss      	25	moss04      	253	alive    	1	still	0	natural 	1	n	0	0    	 	0.0	0	88.2233781999967	88.3232981999972	0.0999200000005657
105789	100	207	stimuli\animals2\pigeon\animal_pigeon10.jpg      	1	3	1	animal_pigeon10.jpg  	animals2 	1	pigeon    	28	pigeon10    	289	alive    	1	moves	1	natural 	1	n	0	0    	 	0.0	0	88.3734180999963	88.4732912999971	0.0998732000007294
105939	100	208	stimuli\animals\horse\animal_horse09.jpg         	1	3	1	animal_horse09.jpg   	animals  	0	horse     	20	horse09     	208	alive    	1	moves	1	natural 	1	n	0	0    	 	0.0	0	88.5234223999942	88.62329649999451	0.0998741000003065
106089	100	209	stimuli\nonmovNat\sand\nmn_sand01.jpg            	1	3	1	nmn_sand01.jpg       	nonmovNat	5	sand      	31	sand01      	310	not_alive	0	still	0	natural 	1	n	0	0    	 	0.0	0	88.6733892999982	88.77329019999891	0.0999009000006481
106239	100	210	stimuli\plant2\fern\plant_fern04.jpg             	1	3	1	plant_fern04.jpg     	plant2   	7	fern      	14	fern04      	143	alive    	1	still	0	natural 	1	n	0	0    	 	0.0	0	88.8233798000001	88.92331989999359	0.09994009999354599
106389	100	211	stimuli\nonmovNat\rock\nmn_rock03.jpg            	1	3	1	nmn_rock03.jpg       	nonmovNat	5	rock      	30	rock03      	302	not_alive	0	still	0	natural 	1	n	0	0    	 	0.0	0	88.97338839999429	89.0732863999947	0.0998980000003939
106539	100	212	stimuli\animals\eagle\animal_eagle05.jpg         	1	3	1	animal_eagle05.jpg   	animals  	0	eagle     	13	eagle05     	134	alive    	1	moves	1	natural 	1	n	0	0    	 	0.0	0	89.1233843999944	89.22327709999809	0.0998927000036928
106689	100	213	stimuli\animals2\whale\animal_whale10.jpg        	1	3	1	animal_whale10.jpg   	animals2 	1	whale     	39	whale10     	399	alive    	1	moves	1	natural 	1	n	0	0    	 	0.0	0	89.27336379999909	89.3732873999979	0.0999235999988741
106839	100	214	stimuli\plant\flower\plant_flower03.jpg          	1	3	1	plant_flower03.jpg   	plant    	6	flower    	16	flower03    	162	alive    	1	still	0	natural 	1	n	1	0    	 	0.0	0	89.4233824999974	89.5233059999955	0.0999234999981126
106989	100	215	stimuli\movArt\bus\ma_bus07.jpg                  	1	3	1	ma_bus07.jpg         	movArt   	2	bus       	3	bus07       	36	not_alive	0	moves	1	artefact	0	n	1	0    	 	0.0	0	89.5733823999981	89.67330729999959	0.099924900001497
107139	100	216	stimuli\animals\cat\animal_cat02.jpg             	1	3	1	animal_cat02.jpg     	animals  	0	cat       	6	cat02       	61	alive    	1	moves	1	natural 	1	n	0	0    	 	0.0	0	89.72347639999501	89.823338999995	0.0998626000000513
107289	100	217	stimuli\movNat\hotspring\mn_hotspring03.jpg      	1	3	1	mn_hotspring03.jpg   	movNat   	3	hotspring 	21	hotspring03 	212	not_alive	0	moves	1	natural 	1	n	0	1    	f	0.39205740000034006	1	89.87346049999908	89.9732793000003	0.0998188000012305
107439	100	218	stimuli\animals2\bee\animal_bee01.jpg            	1	3	1	animal_bee01.jpg     	animals2 	1	bee       	0	bee01       	0	alive    	1	moves	1	natural 	1	n	0	0    	 	0.0	0	90.0233630999937	90.1232651999962	0.0999021000025095
107589	100	219	stimuli\nonmovNat\rock\nmn_rock04.jpg            	1	3	1	nmn_rock04.jpg       	nonmovNat	5	rock      	30	rock04      	303	not_alive	0	still	0	natural 	1	n	0	0    	 	0.0	0	90.17336389999399	90.2732690999983	0.0999052000042866
107739	100	220	stimuli\plant2\palmtree\plant_palmtree09.jpg     	1	3	1	plant_palmtree09.jpg 	plant2   	7	palmtree  	27	palmtree09  	278	alive    	1	still	0	natural 	1	n	0	0    	 	0.0	0	90.32336939999371	90.42326199999658	0.0998926000029314
107889	100	221	stimuli\plant2\clover\plant_clover01.jpg         	1	3	1	plant_clover01.jpg   	plant2   	7	clover    	9	clover01    	90	alive    	1	still	0	natural 	1	n	0	0    	 	0.0	0	90.473387399994	90.57330169999479	0.0999143000008189
108039	100	222	stimuli\plant2\lemontree\plant_lemontree09.jpg   	1	3	1	plant_lemontree09.jpg	plant2   	7	lemontree 	22	lemontree09 	228	alive    	1	still	0	natural 	1	n	0	0    	 	0.0	0	90.62340119999858	90.7232660999944	0.0998648999957367
108189	100	223	stimuli\movNat\hotspring\mn_hotspring05.jpg      	1	3	1	mn_hotspring05.jpg   	movNat   	3	hotspring 	21	hotspring05 	214	not_alive	0	moves	1	natural 	1	n	0	0    	 	0.0	0	90.7733853999962	90.8732912999985	0.0999059000023408
108339	100	224	stimuli\movNat\fire\mn_fire06.jpg                	1	3	1	mn_fire06.jpg        	movNat   	3	fire      	15	fire06      	155	not_alive	0	moves	1	natural 	1	n	0	0    	 	0.0	0	90.92336269999942	91.0232481999992	0.0998854999998002
108489	100	225	stimuli\plant2\lemontree\plant_lemontree10.jpg   	1	3	1	plant_lemontree10.jpg	plant2   	7	lemontree 	22	lemontree10 	229	alive    	1	still	0	natural 	1	n	0	0    	 	0.0	0	91.07334299999641	91.17329069999691	0.0999477000004844
108639	100	226	stimuli\animals2\pigeon\animal_pigeon05.jpg      	1	3	1	animal_pigeon05.jpg  	animals2 	1	pigeon    	28	pigeon05    	284	alive    	1	moves	1	natural 	1	n	0	0    	 	0.0	0	91.22337839999821	91.32327309999529	0.09989469999709401
108789	100	227	stimuli\nonmovArt\lock\nma_lock08.jpg            	1	3	1	nma_lock08.jpg       	nonmovArt	4	lock      	24	lock08      	247	not_alive	0	still	0	artefact	0	n	0	0    	 	0.0	0	91.37340979999858	91.4733234999949	0.0999136999962502
108939	100	228	stimuli\plant2\clover\plant_clover08.jpg         	1	3	1	plant_clover08.jpg   	plant2   	7	clover    	9	clover08    	97	alive    	1	still	0	natural 	1	n	0	0    	 	0.0	0	91.5235571999947	91.6234001999983	0.0998430000036023
109089	100	229	stimuli\nonmovNat\cliff\nmn_cliff03.jpg          	1	3	1	nmn_cliff03.jpg      	nonmovNat	5	cliff     	7	cliff03     	72	not_alive	0	still	0	natural 	1	n	0	0    	 	0.0	0	91.67334819999809	91.77325699999349	0.099908799995319
109239	100	230	stimuli\movNat\waterfall\mn_waterfall01.jpg      	1	3	1	mn_waterfall01.jpg   	movNat   	3	waterfall 	37	waterfall01 	370	not_alive	0	moves	1	natural 	1	n	0	0    	 	0.0	0	91.8233796999994	91.9232806	0.0999009000006481
109389	100	231	stimuli\movArt\train\ma_train05.jpg              	1	3	1	ma_train05.jpg       	movArt   	2	train     	34	train05     	344	not_alive	0	moves	1	artefact	0	n	0	0    	 	0.0	0	91.97336029999859	92.0732665999967	0.0999062999981106
109539	100	232	stimuli\plant\vine\plant_vine03.jpg              	1	3	1	plant_vine03.jpg     	plant    	6	vine      	36	vine03      	362	alive    	1	still	0	natural 	1	n	0	0    	 	0.0	0	92.12334799999371	92.22325609999821	0.0999081000045407
109689	100	233	stimuli\plant2\palmtree\plant_palmtree06.jpg     	1	3	1	plant_palmtree06.jpg 	plant2   	7	palmtree  	27	palmtree06  	275	alive    	1	still	0	natural 	1	n	0	0    	 	0.0	0	92.27336159999679	92.3732766999965	0.0999150999996345
109839	100	234	stimuli\movArt\boat\ma_boat06.jpg                	1	3	1	ma_boat06.jpg        	movArt   	2	boat      	2	boat06      	25	not_alive	0	moves	1	artefact	0	n	0	0    	 	0.0	0	92.4233411999958	92.5232722999936	0.0999310999977751
109989	100	235	stimuli\animals\dog\animal_dog01.jpg             	1	3	1	animal_dog01.jpg     	animals  	0	dog       	11	dog01       	110	alive    	1	moves	1	natural 	1	n	0	0    	 	0.0	0	92.5733620999963	92.6732546999992	0.0998926000029314
110139	100	236	stimuli\nonmovArt\bench\nma_bench01.jpg          	1	3	1	nma_bench01.jpg      	nonmovArt	4	bench     	1	bench01     	10	not_alive	0	still	0	artefact	0	n	0	0    	 	0.0	0	92.72337329999571	92.8232785999935	0.09990529999777199
110289	100	237	stimuli\plant\grass\plant_grass04.jpg            	1	3	1	plant_grass04.jpg    	plant    	6	grass     	17	grass04     	173	alive    	1	still	0	natural 	1	n	0	1    	f	0.0	0	92.87334030000059	92.9732661999951	0.0999258999945596
110439	100	238	stimuli\movArt\helicopter\ma_helicopter09.jpg    	1	3	1	ma_helicopter09.jpg  	movArt   	2	helicopter	19	helicopter09	198	not_alive	0	moves	1	artefact	0	n	0	0    	 	0.0	0	93.0233420000004	93.1232648000005	0.0999228000000584
110589	100	239	stimuli\movArt\train\ma_train06.jpg              	1	3	1	ma_train06.jpg       	movArt   	2	train     	34	train06     	345	not_alive	0	moves	1	artefact	0	n	0	0    	 	0.0	0	93.17333420000071	93.2733631999945	0.10002899999381
120172	100	240	stimuli\animals\dog\animal_dog01.jpg             	1	4	1	animal_dog01.jpg     	animals  	0	dog       	11	dog01       	110	alive    	1	moves	1	natural 	1	n	0	0    	 	0.0	0	102.756589500001	102.856453499997	0.0998639999961596
120322	100	241	stimuli\nonmovArt\clothespeg\nma_clothespeg02.jpg	1	4	1	nma_clothespeg02.jpg 	nonmovArt	4	clothespeg	8	clothespeg02	81	not_alive	0	still	0	artefact	0	n	0	0    	 	0.0	0	102.906556599999	103.006449199995	0.0998925999956554
120472	100	242	stimuli\movNat\fire\mn_fire08.jpg                	1	4	1	mn_fire08.jpg        	movNat   	3	fire      	15	fire08      	157	not_alive	0	moves	1	natural 	1	n	0	0    	 	0.0	0	103.05655249999799	103.15647379999399	0.0999212999959127
120622	100	243	stimuli\nonmovArt\clothespeg\nma_clothespeg09.jpg	1	4	1	nma_clothespeg09.jpg 	nonmovArt	4	clothespeg	8	clothespeg09	88	not_alive	0	still	0	artefact	0	n	0	0    	 	0.0	0	103.20655969999599	103.3064677	0.0999080000037793
120772	100	244	stimuli\animals\eagle\animal_eagle03.jpg         	1	4	1	animal_eagle03.jpg   	animals  	0	eagle     	13	eagle03     	132	alive    	1	moves	1	natural 	1	n	0	0    	 	0.0	0	103.356551199999	103.4565162	0.0999650000012479
120922	100	245	stimuli\plant2\moss\plant_moss10.jpg             	1	4	1	plant_moss10.jpg     	plant2   	7	moss      	25	moss10      	259	alive    	1	still	0	natural 	1	n	0	0    	 	0.0	0	103.506649199997	103.606549299999	0.0999001000018324
121072	100	246	stimuli\movArt\bus\ma_bus06.jpg                  	1	4	1	ma_bus06.jpg         	movArt   	2	bus       	3	bus06       	35	not_alive	0	moves	1	artefact	0	n	0	0    	 	0.0	0	103.656570499996	103.756438299999	0.0998678000032669
121222	100	247	stimuli\animals\dog\animal_dog03.jpg             	1	4	1	animal_dog03.jpg     	animals  	0	dog       	11	dog03       	112	alive    	1	moves	1	natural 	1	n	0	0    	 	0.0	0	103.806542499995	103.90646009999901	0.0999176000041188
121372	100	248	stimuli\plant\vine\plant_vine06.jpg              	1	4	1	plant_vine06.jpg     	plant    	6	vine      	36	vine06      	365	alive    	1	still	0	natural 	1	n	0	0    	 	0.0	0	103.95654119999399	104.0564371	0.0998959000062314
121522	100	249	stimuli\plant2\palmtree\plant_palmtree09.jpg     	1	4	1	plant_palmtree09.jpg 	plant2   	7	palmtree  	27	palmtree09  	278	alive    	1	still	0	natural 	1	n	0	0    	 	0.0	0	104.10654269999901	104.2064513	0.09990860000107199
121672	100	250	stimuli\nonmovNat\sand\nmn_sand05.jpg            	1	4	1	nmn_sand05.jpg       	nonmovNat	5	sand      	31	sand05      	314	not_alive	0	still	0	natural 	1	n	0	0    	 	0.0	0	104.25652859999501	104.3564367	0.0999081000045407
121822	100	251	stimuli\animals2\bee\animal_bee03.jpg            	1	4	1	animal_bee03.jpg     	animals2 	1	bee       	0	bee03       	2	alive    	1	moves	1	natural 	1	n	0	0    	 	0.0	0	104.406539399999	104.50643739999902	0.0998980000003939
121972	100	252	stimuli\plant2\palmtree\plant_palmtree05.jpg     	1	4	1	plant_palmtree05.jpg 	plant2   	7	palmtree  	27	palmtree05  	274	alive    	1	still	0	natural 	1	n	0	0    	 	0.0	0	104.556538699995	104.65645239999901	0.0999137000035261
122122	100	253	stimuli\animals2\whale\animal_whale04.jpg        	1	4	1	animal_whale04.jpg   	animals2 	1	whale     	39	whale04     	393	alive    	1	moves	1	natural 	1	n	0	0    	 	0.0	0	104.70654409999399	104.806464299996	0.0999202000020886
122272	100	254	stimuli\nonmovNat\cliff\nmn_cliff03.jpg          	1	4	1	nmn_cliff03.jpg      	nonmovNat	5	cliff     	7	cliff03     	72	not_alive	0	still	0	natural 	1	n	0	0    	 	0.0	0	104.856550199998	104.956458699999	0.0999085000003106
122422	100	255	stimuli\plant2\moss\plant_moss10.jpg             	1	4	1	plant_moss10.jpg     	plant2   	7	moss      	25	moss10      	259	alive    	1	still	0	natural 	1	n	0	0    	 	0.0	0	105.006550399994	105.106471599996	0.0999212000024272
122572	100	256	stimuli\animals\cat\animal_cat03.jpg             	1	4	1	animal_cat03.jpg     	animals  	0	cat       	6	cat03       	62	alive    	1	moves	1	natural 	1	n	0	0    	 	0.0	0	105.156546799997	105.256446399995	0.0998995999980252
122722	100	257	stimuli\movNat\waves\mn_waves08.jpg              	1	4	1	mn_waves08.jpg       	movNat   	3	waves     	38	waves08     	387	not_alive	0	moves	1	natural 	1	n	0	0    	 	0.0	0	105.306625899997	105.406534499998	0.09990860000107199
122872	100	258	stimuli\movArt\train\ma_train02.jpg              	1	4	1	ma_train02.jpg       	movArt   	2	train     	34	train02     	341	not_alive	0	moves	1	artefact	0	n	0	0    	 	0.0	0	105.456446899996	105.556452099998	0.10000520000176
123022	100	259	stimuli\animals\eagle\animal_eagle05.jpg         	1	4	1	animal_eagle05.jpg   	animals  	0	eagle     	13	eagle05     	134	alive    	1	moves	1	natural 	1	n	0	0    	 	0.0	0	105.60654459999901	105.706489799995	0.0999451999960001
123172	100	260	stimuli\movNat\river\mn_river07.jpg              	1	4	1	mn_river07.jpg       	movNat   	3	river     	29	river07     	296	not_alive	0	moves	1	natural 	1	n	0	0    	 	0.0	0	105.756553599997	105.856463899996	0.0999102999994647
123322	100	261	stimuli\movArt\boat\ma_boat05.jpg                	1	4	1	ma_boat05.jpg        	movArt   	2	boat      	2	boat05      	24	not_alive	0	moves	1	artefact	0	n	0	0    	 	0.0	0	105.9065357	106.006434099996	0.0998983999961638
123472	100	262	stimuli\plant2\clover\plant_clover05.jpg         	1	4	1	plant_clover05.jpg   	plant2   	7	clover    	9	clover05    	94	alive    	1	still	0	natural 	1	n	0	0    	 	0.0	0	106.056535199998	106.15647549999998	0.0999403000023448
123622	100	263	stimuli\nonmovArt\lock\nma_lock09.jpg            	1	4	1	nma_lock09.jpg       	nonmovArt	4	lock      	24	lock09      	248	not_alive	0	still	0	artefact	0	n	0	0    	 	0.0	0	106.206548399998	106.306448899995	0.0999004999976023
123772	100	264	stimuli\nonmovNat\shell\nmn_shell08.jpg          	1	4	1	nmn_shell08.jpg      	nonmovNat	5	shell     	32	shell08     	327	not_alive	0	still	0	natural 	1	n	0	0    	 	0.0	0	106.356520199995	106.45643890000099	0.0999187000052188
123922	100	265	stimuli\movArt\helicopter\ma_helicopter06.jpg    	1	4	1	ma_helicopter06.jpg  	movArt   	2	helicopter	19	helicopter06	195	not_alive	0	moves	1	artefact	0	n	0	0    	 	0.0	0	106.506554599997	106.606430799999	0.099876200001745
124072	100	266	stimuli\movNat\waterfall\mn_waterfall01.jpg      	1	4	1	mn_waterfall01.jpg   	movNat   	3	waterfall 	37	waterfall01 	370	not_alive	0	moves	1	natural 	1	n	0	0    	 	0.0	0	106.656557599999	106.7564709	0.0999133000004803
124222	100	267	stimuli\plant2\fern\plant_fern01.jpg             	1	4	1	plant_fern01.jpg     	plant2   	7	fern      	14	fern01      	140	alive    	1	still	0	natural 	1	n	0	0    	 	0.0	0	106.806528099994	106.906450999995	0.0999229000008199
124372	100	268	stimuli\movNat\hotspring\mn_hotspring04.jpg      	1	4	1	mn_hotspring04.jpg   	movNat   	3	hotspring 	21	hotspring04 	213	not_alive	0	moves	1	natural 	1	n	0	0    	 	0.0	0	106.956536599995	107.056384999996	0.0998484000010648
124522	100	269	stimuli\nonmovArt\headphones\nma_headphones04.jpg	1	4	1	nma_headphones04.jpg 	nonmovArt	4	headphones	18	headphones04	183	not_alive	0	still	0	artefact	0	n	0	0    	 	0.0	0	107.106617999998	107.206573999996	0.0999559999982011
124672	100	270	stimuli\plant2\fern\plant_fern09.jpg             	1	4	1	plant_fern09.jpg     	plant2   	7	fern      	14	fern09      	148	alive    	1	still	0	natural 	1	n	0	0    	 	0.0	0	107.256514299996	107.35643059999701	0.0999163000014959
124822	100	271	stimuli\movNat\waves\mn_waves07.jpg              	1	4	1	mn_waves07.jpg       	movNat   	3	waves     	38	waves07     	386	not_alive	0	moves	1	natural 	1	n	0	0    	 	0.0	0	107.406522400001	107.506427199995	0.0999047999939648
124971	100	272	stimuli\animals2\tiger\animal_tiger05.jpg        	1	4	1	animal_tiger05.jpg   	animals2 	1	tiger     	33	tiger05     	334	alive    	1	moves	1	natural 	1	n	0	0    	 	0.0	0	107.55563779999599	107.65563289999399	0.0999950999976135
125121	100	273	stimuli\animals\dolphin\animal_dolphin08.jpg     	1	4	1	animal_dolphin08.jpg 	animals  	0	dolphin   	12	dolphin08   	127	alive    	1	moves	1	natural 	1	n	0	0    	 	0.0	0	107.705637499996	107.80562439999599	0.0999869000006583
125271	100	274	stimuli\plant\flower\plant_flower08.jpg          	1	4	1	plant_flower08.jpg   	plant    	6	flower    	16	flower08    	167	alive    	1	still	0	natural 	1	n	0	0    	 	0.0	0	107.85564019999599	107.955630599994	0.0999903999982052
125421	100	275	stimuli\plant2\clover\plant_clover01.jpg         	1	4	1	plant_clover01.jpg   	plant2   	7	clover    	9	clover01    	90	alive    	1	still	0	natural 	1	n	0	0    	 	0.0	0	108.005634900001	108.105624099997	0.0999891999963438
125571	100	276	stimuli\animals\horse\animal_horse03.jpg         	1	4	1	animal_horse03.jpg   	animals  	0	horse     	20	horse03     	202	alive    	1	moves	1	natural 	1	n	0	0    	 	0.0	0	108.15563639999901	108.2556205	0.0999841000011656
125721	100	277	stimuli\animals2\pigeon\animal_pigeon08.jpg      	1	4	1	animal_pigeon08.jpg  	animals2 	1	pigeon    	28	pigeon08    	287	alive    	1	moves	1	natural 	1	n	0	0    	 	0.0	0	108.305632099997	108.40564119999901	0.10000910000235301
125871	100	278	stimuli\nonmovArt\headphones\nma_headphones05.jpg	1	4	1	nma_headphones05.jpg 	nonmovArt	4	headphones	18	headphones05	184	not_alive	0	still	0	artefact	0	n	0	0    	 	0.0	0	108.455648199997	108.555633599994	0.0999853999965125
126021	100	279	stimuli\plant2\clover\plant_clover04.jpg         	1	4	1	plant_clover04.jpg   	plant2   	7	clover    	9	clover04    	93	alive    	1	still	0	natural 	1	n	0	0    	 	0.0	0	108.605643700001	108.705633699996	0.0999899999951594
126171	100	280	stimuli\animals2\tiger\animal_tiger10.jpg        	1	4	1	animal_tiger10.jpg   	animals2 	1	tiger     	33	tiger10     	339	alive    	1	moves	1	natural 	1	n	0	0    	 	0.0	0	108.755640199997	108.85563129999399	0.0999910999962594
126321	100	281	stimuli\movNat\fire\mn_fire03.jpg                	1	4	1	mn_fire03.jpg        	movNat   	3	fire      	15	fire03      	152	not_alive	0	moves	1	natural 	1	n	1	0    	 	0.0	0	108.905637599993	109.005626300001	0.0999887000070884
126471	100	282	stimuli\nonmovNat\crystal\nmn_crystal05.jpg      	1	4	1	nmn_crystal05.jpg    	nonmovNat	5	crystal   	10	crystal05   	104	not_alive	0	still	0	natural 	1	n	0	0    	 	0.0	0	109.05563559999399	109.15562529999399	0.099989700000151
126621	100	283	stimuli\animals2\whale\animal_whale09.jpg        	1	4	1	animal_whale09.jpg   	animals2 	1	whale     	39	whale09     	398	alive    	1	moves	1	natural 	1	n	0	1    	f	0.3919832000028689	1	109.20563389999701	109.30562379999901	0.0999899000016739
126771	100	284	stimuli\movArt\helicopter\ma_helicopter09.jpg    	1	4	1	ma_helicopter09.jpg  	movArt   	2	helicopter	19	helicopter09	198	not_alive	0	moves	1	artefact	0	n	1	0    	 	0.0	0	109.35563469999799	109.4556209	0.0999862000026041
126921	100	285	stimuli\plant\grass\plant_grass05.jpg            	1	4	1	plant_grass05.jpg    	plant    	6	grass     	17	grass05     	174	alive    	1	still	0	natural 	1	n	0	0    	 	0.0	0	109.50563049999599	109.605618599999	0.0999881000025198
127071	100	286	stimuli\movNat\waterfall\mn_waterfall10.jpg      	1	4	1	mn_waterfall10.jpg   	movNat   	3	waterfall 	37	waterfall10 	379	not_alive	0	moves	1	natural 	1	n	0	1    	f	0.39198559999931604	1	109.65562939999701	109.75561950000001	0.0999901000031968
127221	100	287	stimuli\animals2\pigeon\animal_pigeon05.jpg      	1	4	1	animal_pigeon05.jpg  	animals2 	1	pigeon    	28	pigeon05    	284	alive    	1	moves	1	natural 	1	n	0	0    	 	0.0	0	109.8056297	109.90561840000001	0.0999886999998125
127371	100	288	stimuli\animals\dolphin\animal_dolphin02.jpg     	1	4	1	animal_dolphin02.jpg 	animals  	0	dolphin   	12	dolphin02   	121	alive    	1	moves	1	natural 	1	n	0	0    	 	0.0	0	109.955627099996	110.055616599995	0.0999894999986281
127521	100	289	stimuli\nonmovNat\crystal\nmn_crystal06.jpg      	1	4	1	nmn_crystal06.jpg    	nonmovNat	5	crystal   	10	crystal06   	105	not_alive	0	still	0	natural 	1	n	0	0    	 	0.0	0	110.105624599993	110.20561249999399	0.0999879000009968
127671	100	290	stimuli\nonmovNat\cliff\nmn_cliff01.jpg          	1	4	1	nmn_cliff01.jpg      	nonmovNat	5	cliff     	7	cliff01     	70	not_alive	0	still	0	natural 	1	n	0	0    	 	0.0	0	110.25562430000001	110.355612399995	0.0999880999952438
127821	100	291	stimuli\plant\tree\plant_tree09.jpg              	1	4	1	plant_tree09.jpg     	plant    	6	tree      	35	tree09      	358	alive    	1	still	0	natural 	1	n	0	0    	 	0.0	0	110.405622599996	110.50561199999399	0.0999893999978667
127971	100	292	stimuli\animals2\bee\animal_bee08.jpg            	1	4	1	animal_bee08.jpg     	animals2 	1	bee       	0	bee08       	7	alive    	1	moves	1	natural 	1	n	0	0    	 	0.0	0	110.55562219999399	110.65561119999599	0.0999890000020968
128121	100	293	stimuli\plant\vine\plant_vine10.jpg              	1	4	1	plant_vine10.jpg     	plant    	6	vine      	36	vine10      	369	alive    	1	still	0	natural 	1	n	0	0    	 	0.0	0	110.705644499998	110.805609299998	0.099964799999725
128271	100	294	stimuli\nonmovNat\cliff\nmn_cliff05.jpg          	1	4	1	nmn_cliff05.jpg      	nonmovNat	5	cliff     	7	cliff05     	74	not_alive	0	still	0	natural 	1	n	0	0    	 	0.0	0	110.8556169	110.955607199998	0.0999902999974438
128421	100	295	stimuli\animals2\lemur\animal_lemur09.jpg        	1	4	1	animal_lemur09.jpg   	animals2 	1	lemur     	23	lemur09     	238	alive    	1	moves	1	natural 	1	n	0	0    	 	0.0	0	111.005617199997	111.105604699995	0.099987499997951
128571	100	296	stimuli\plant2\lemontree\plant_lemontree02.jpg   	1	4	1	plant_lemontree02.jpg	plant2   	7	lemontree 	22	lemontree02 	221	alive    	1	still	0	natural 	1	n	0	0    	 	0.0	0	111.15561439999901	111.255603999998	0.0999895999993896
128721	100	297	stimuli\nonmovArt\mug\nma_mug02.jpg              	1	4	1	nma_mug02.jpg        	nonmovArt	4	mug       	26	mug02       	261	not_alive	0	still	0	artefact	0	n	0	0    	 	0.0	0	111.30561440000001	111.40560089999799	0.0999864999976125
128871	100	298	stimuli\nonmovArt\headphones\nma_headphones10.jpg	1	4	1	nma_headphones10.jpg 	nonmovArt	4	headphones	18	headphones10	189	not_alive	0	still	0	artefact	0	n	0	0    	 	0.0	0	111.45561040000001	111.55560049999599	0.0999900999959209
129021	100	299	stimuli\movNat\waves\mn_waves04.jpg              	1	4	1	mn_waves04.jpg       	movNat   	3	waves     	38	waves04     	383	not_alive	0	moves	1	natural 	1	n	0	0    	 	0.0	0	111.605609499995	111.705597699998	0.0999882000032812
129171	100	300	stimuli\nonmovArt\mug\nma_mug07.jpg              	1	4	1	nma_mug07.jpg        	nonmovArt	4	mug       	26	mug07       	266	not_alive	0	still	0	artefact	0	n	0	0    	 	0.0	0	111.75563100000001	111.85559919999599	0.0999681999965105
129321	100	301	stimuli\nonmovNat\rock\nmn_rock03.jpg            	1	4	1	nmn_rock03.jpg       	nonmovNat	5	rock      	30	rock03      	302	not_alive	0	still	0	natural 	1	n	0	0    	 	0.0	0	111.90560639999599	112.005596899995	0.0999904999989667
129471	100	302	stimuli\animals\cat\animal_cat09.jpg             	1	4	1	animal_cat09.jpg     	animals  	0	cat       	6	cat09       	68	alive    	1	moves	1	natural 	1	n	0	0    	 	0.0	0	112.05560649999799	112.15559179999399	0.0999852999957511
129621	100	303	stimuli\nonmovNat\rock\nmn_rock09.jpg            	1	4	1	nmn_rock09.jpg       	nonmovNat	5	rock      	30	rock09      	308	not_alive	0	still	0	natural 	1	n	0	0    	 	0.0	0	112.20560470000099	112.30559279999599	0.0999880999952438
129771	100	304	stimuli\animals2\pigeon\animal_pigeon07.jpg      	1	4	1	animal_pigeon07.jpg  	animals2 	1	pigeon    	28	pigeon07    	286	alive    	1	moves	1	natural 	1	n	1	0    	 	0.0	0	112.355605099998	112.45559049999399	0.0999853999965125
129921	100	305	stimuli\plant2\moss\plant_moss06.jpg             	1	4	1	plant_moss06.jpg     	plant2   	7	moss      	25	moss06      	255	alive    	1	still	0	natural 	1	n	1	0    	 	0.0	0	112.505598799995	112.605587599995	0.0999888000005739
130071	100	306	stimuli\movNat\waterfall\mn_waterfall02.jpg      	1	4	1	mn_waterfall02.jpg   	movNat   	3	waterfall 	37	waterfall02 	371	not_alive	0	moves	1	natural 	1	n	0	1    	f	0.24200030000065498	1	112.655599499994	112.755584599996	0.0999851000015041
130221	100	307	stimuli\nonmovNat\rock\nmn_rock08.jpg            	1	4	1	nmn_rock08.jpg       	nonmovNat	5	rock      	30	rock08      	307	not_alive	0	still	0	natural 	1	n	0	0    	 	0.0	0	112.805598499996	112.905587900001	0.0999894000051426
130371	100	308	stimuli\nonmovNat\crystal\nmn_crystal02.jpg      	1	4	1	nmn_crystal02.jpg    	nonmovNat	5	crystal   	10	crystal02   	101	not_alive	0	still	0	natural 	1	n	0	0    	 	0.0	0	112.95559369999701	113.055582499997	0.0999888000005739
130521	100	309	stimuli\movNat\fire\mn_fire02.jpg                	1	4	1	mn_fire02.jpg        	movNat   	3	fire      	15	fire02      	151	not_alive	0	moves	1	natural 	1	n	0	0    	 	0.0	0	113.10559319999399	113.205582999995	0.0999898000009125
130671	100	310	stimuli\movArt\car\ma_car06.jpg                  	1	4	1	ma_car06.jpg         	movArt   	2	car       	5	car06       	55	not_alive	0	moves	1	artefact	0	n	0	0    	 	0.0	0	113.255591900001	113.35557979999399	0.0999878999937209
130821	100	311	stimuli\movArt\car\ma_car08.jpg                  	1	4	1	ma_car08.jpg         	movArt   	2	car       	5	car08       	57	not_alive	0	moves	1	artefact	0	n	0	0    	 	0.0	0	113.4055888	113.50557809999701	0.0999892999971052
130971	100	312	stimuli\plant\flower\plant_flower02.jpg          	1	4	1	plant_flower02.jpg   	plant    	6	flower    	16	flower02    	161	alive    	1	still	0	natural 	1	n	0	0    	 	0.0	0	113.555588199997	113.655576199999	0.0999880000017583
131121	100	313	stimuli\plant2\palmtree\plant_palmtree07.jpg     	1	4	1	plant_palmtree07.jpg 	plant2   	7	palmtree  	27	palmtree07  	276	alive    	1	still	0	natural 	1	n	0	0    	 	0.0	0	113.70558789999599	113.80557569999701	0.0999878000002354
131271	100	314	stimuli\animals2\lemur\animal_lemur04.jpg        	1	4	1	animal_lemur04.jpg   	animals2 	1	lemur     	23	lemur04     	233	alive    	1	moves	1	natural 	1	n	0	0    	 	0.0	0	113.855586799997	113.95557419999399	0.0999873999971896
131421	100	315	stimuli\movArt\bus\ma_bus05.jpg                  	1	4	1	ma_bus05.jpg         	movArt   	2	bus       	3	bus05       	34	not_alive	0	moves	1	artefact	0	n	0	0    	 	0.0	0	114.005585699997	114.10557479999999	0.0999891000028583
131571	100	316	stimuli\animals\cat\animal_cat04.jpg             	1	4	1	animal_cat04.jpg     	animals  	0	cat       	6	cat04       	63	alive    	1	moves	1	natural 	1	n	0	0    	 	0.0	0	114.155597299999	114.255573199996	0.0999758999969344
131721	100	317	stimuli\plant\cactus\plant_cactus06.jpg          	1	4	1	plant_cactus06.jpg   	plant    	6	cactus    	4	cactus06    	45	alive    	1	still	0	natural 	1	n	0	0    	 	0.0	0	114.305579499996	114.40556770000002	0.0999882000032812
131871	100	318	stimuli\plant2\fern\plant_fern06.jpg             	1	4	1	plant_fern06.jpg     	plant2   	7	fern      	14	fern06      	145	alive    	1	still	0	natural 	1	n	0	0    	 	0.0	0	114.45557799999399	114.555568099997	0.0999901000031968
132021	100	319	stimuli\animals\dog\animal_dog06.jpg             	1	4	1	animal_dog06.jpg     	animals  	0	dog       	11	dog06       	115	alive    	1	moves	1	natural 	1	n	0	0    	 	0.0	0	114.605578099996	114.70556659999399	0.0999884999982896
138739	100	320	stimuli\plant\flower\plant_flower09.jpg          	1	5	1	plant_flower09.jpg   	plant    	6	flower    	16	flower09    	168	alive    	1	still	0	natural 	1	n	0	0    	 	0.0	0	121.323127899996	121.4230455	0.0999176000041188
138889	100	321	stimuli\nonmovArt\bench\nma_bench06.jpg          	1	5	1	nma_bench06.jpg      	nonmovArt	4	bench     	1	bench06     	15	not_alive	0	still	0	artefact	0	n	0	0    	 	0.0	0	121.473134699998	121.57294399999999	0.0998093000016524
139039	100	322	stimuli\movNat\river\mn_river10.jpg              	1	5	1	mn_river10.jpg       	movNat   	3	river     	29	river10     	299	not_alive	0	moves	1	natural 	1	n	0	0    	 	0.0	0	121.623029299997	121.72293329999998	0.0999040000024251
139189	100	323	stimuli\plant\tree\plant_tree07.jpg              	1	5	1	plant_tree07.jpg     	plant    	6	tree      	35	tree07      	356	alive    	1	still	0	natural 	1	n	0	0    	 	0.0	0	121.7732082	121.8729312	0.0997229999993578
139339	100	324	stimuli\movArt\boat\ma_boat07.jpg                	1	5	1	ma_boat07.jpg        	movArt   	2	boat      	2	boat07      	26	not_alive	0	moves	1	artefact	0	n	0	0    	 	0.0	0	121.923022299998	122.02292989999799	0.0999076000007335
139489	100	325	stimuli\nonmovNat\sand\nmn_sand04.jpg            	1	5	1	nmn_sand04.jpg       	nonmovNat	5	sand      	31	sand04      	313	not_alive	0	still	0	natural 	1	n	0	0    	 	0.0	0	122.07302440000099	122.172913599999	0.09988919999886998
139639	100	326	stimuli\plant2\lemontree\plant_lemontree08.jpg   	1	5	1	plant_lemontree08.jpg	plant2   	7	lemontree 	22	lemontree08 	227	alive    	1	still	0	natural 	1	n	0	0    	 	0.0	0	122.223027499997	122.32292779999999	0.0999003000033553
139788	100	327	stimuli\animals\eagle\animal_eagle03.jpg         	1	5	1	animal_eagle03.jpg   	animals  	0	eagle     	13	eagle03     	132	alive    	1	moves	1	natural 	1	n	0	0    	 	0.0	0	122.373015199999	122.472906899995	0.0998916999960784
139938	100	328	stimuli\animals2\lemur\animal_lemur05.jpg        	1	5	1	animal_lemur05.jpg   	animals2 	1	lemur     	23	lemur05     	234	alive    	1	moves	1	natural 	1	n	0	0    	 	0.0	0	122.523012999998	122.6229255	0.0999125000016647
140088	100	329	stimuli\movNat\river\mn_river07.jpg              	1	5	1	mn_river07.jpg       	movNat   	3	river     	29	river07     	296	not_alive	0	moves	1	natural 	1	n	0	0    	 	0.0	0	122.673007199999	122.77292189999599	0.0999146999965887
140239	100	330	stimuli\nonmovNat\shell\nmn_shell01.jpg          	1	5	1	nmn_shell01.jpg      	nonmovNat	5	shell     	32	shell01     	320	not_alive	0	still	0	natural 	1	n	0	0    	 	0.0	0	122.82302269999501	122.92292569999701	0.0999030000020866
140389	100	331	stimuli\plant\grass\plant_grass09.jpg            	1	5	1	plant_grass09.jpg    	plant    	6	grass     	17	grass09     	178	alive    	1	still	0	natural 	1	n	0	0    	 	0.0	0	122.973028099994	123.072921499996	0.099893400001747
140538	100	332	stimuli\movNat\hotspring\mn_hotspring08.jpg      	1	5	1	mn_hotspring08.jpg   	movNat   	3	hotspring 	21	hotspring08 	217	not_alive	0	moves	1	natural 	1	n	0	0    	 	0.0	0	123.122986799994	123.2229219	0.0999351000064052
140689	100	333	stimuli\movArt\helicopter\ma_helicopter02.jpg    	1	5	1	ma_helicopter02.jpg  	movArt   	2	helicopter	19	helicopter02	191	not_alive	0	moves	1	artefact	0	n	0	0    	 	0.0	0	123.273090799994	123.37290829999999	0.0998175000058836
140838	100	334	stimuli\animals\dolphin\animal_dolphin01.jpg     	1	5	1	animal_dolphin01.jpg 	animals  	0	dolphin   	12	dolphin01   	120	alive    	1	moves	1	natural 	1	n	0	0    	 	0.0	0	123.422993299995	123.52291549999799	0.0999222000027657
140988	100	335	stimuli\plant2\lemontree\plant_lemontree02.jpg   	1	5	1	plant_lemontree02.jpg	plant2   	7	lemontree 	22	lemontree02 	221	alive    	1	still	0	natural 	1	n	0	0    	 	0.0	0	123.57300729999399	123.672928699998	0.0999214000039501
141138	100	336	stimuli\nonmovNat\shell\nmn_shell06.jpg          	1	5	1	nmn_shell06.jpg      	nonmovNat	5	shell     	32	shell06     	325	not_alive	0	still	0	natural 	1	n	0	0    	 	0.0	0	123.72300529999501	123.822921599996	0.0999163000014959
141288	100	337	stimuli\plant\cactus\plant_cactus03.jpg          	1	5	1	plant_cactus03.jpg   	plant    	6	cactus    	4	cactus03    	42	alive    	1	still	0	natural 	1	n	0	0    	 	0.0	0	123.873003099994	123.972910099998	0.0999070000034407
141439	100	338	stimuli\animals2\whale\animal_whale02.jpg        	1	5	1	animal_whale02.jpg   	animals2 	1	whale     	39	whale02     	391	alive    	1	moves	1	natural 	1	n	0	0    	 	0.0	0	124.0230247	124.12290359999999	0.0998789000004762
141588	100	339	stimuli\movArt\boat\ma_boat08.jpg                	1	5	1	ma_boat08.jpg        	movArt   	2	boat      	2	boat08      	27	not_alive	0	moves	1	artefact	0	n	0	0    	 	0.0	0	124.17299399999999	124.272906799997	0.0999127999966731
141739	100	340	stimuli\plant\vine\plant_vine08.jpg              	1	5	1	plant_vine08.jpg     	plant    	6	vine      	36	vine08      	367	alive    	1	still	0	natural 	1	n	0	0    	 	0.0	0	124.323091499995	124.422902699996	0.09981120000156801
141888	100	341	stimuli\movArt\car\ma_car07.jpg                  	1	5	1	ma_car07.jpg         	movArt   	2	car       	5	car07       	56	not_alive	0	moves	1	artefact	0	n	1	0    	 	0.0	0	124.472989199996	124.57290229999501	0.0999130999989574
142038	100	342	stimuli\plant\grass\plant_grass08.jpg            	1	5	1	plant_grass08.jpg    	plant    	6	grass     	17	grass08     	177	alive    	1	still	0	natural 	1	n	0	0    	 	0.0	0	124.622887599995	124.72289479999701	0.10000720000243699
142189	100	343	stimuli\movArt\bus\ma_bus03.jpg                  	1	5	1	ma_bus03.jpg         	movArt   	2	bus       	3	bus03       	32	not_alive	0	moves	1	artefact	0	n	0	1    	f	0.39205680000304705	1	124.77302999999701	124.87296609999599	0.0999360999994678
142339	100	344	stimuli\movArt\train\ma_train06.jpg              	1	5	1	ma_train06.jpg       	movArt   	2	train     	34	train06     	345	not_alive	0	moves	1	artefact	0	n	0	0    	 	0.0	0	124.923094499994	125.023096499994	0.10000199999922199
142489	100	345	stimuli\nonmovArt\bench\nma_bench02.jpg          	1	5	1	nma_bench02.jpg      	nonmovArt	4	bench     	1	bench02     	11	not_alive	0	still	0	artefact	0	n	0	0    	 	0.0	0	125.073175099998	125.17290420000099	0.0997291000021505
142638	100	346	stimuli\movNat\hotspring\mn_hotspring01.jpg      	1	5	1	mn_hotspring01.jpg   	movNat   	3	hotspring 	21	hotspring01 	210	not_alive	0	moves	1	natural 	1	n	0	0    	 	0.0	0	125.22299019999599	125.32289619999901	0.0999060000031022
142788	100	347	stimuli\nonmovArt\mug\nma_mug06.jpg              	1	5	1	nma_mug06.jpg        	nonmovArt	4	mug       	26	mug06       	265	not_alive	0	still	0	artefact	0	n	0	0    	 	0.0	0	125.372997299994	125.472917799998	0.09992050000437301
142938	100	348	stimuli\animals\horse\animal_horse01.jpg         	1	5	1	animal_horse01.jpg   	animals  	0	horse     	20	horse01     	200	alive    	1	moves	1	natural 	1	n	1	0    	 	0.0	0	125.52299019999901	125.622898199996	0.0999079999965033
143088	100	349	stimuli\nonmovArt\lock\nma_lock06.jpg            	1	5	1	nma_lock06.jpg       	nonmovArt	4	lock      	24	lock06      	245	not_alive	0	still	0	artefact	0	n	0	0    	 	0.0	0	125.672984699995	125.77292289999599	0.0999382000009063
143238	100	350	stimuli\movArt\train\ma_train01.jpg              	1	5	1	ma_train01.jpg       	movArt   	2	train     	34	train01     	340	not_alive	0	moves	1	artefact	0	n	0	1    	f	0.39200049999635705	1	125.82298869999799	125.92288379999799	0.0998951000001398
143389	100	351	stimuli\nonmovNat\sand\nmn_sand07.jpg            	1	5	1	nmn_sand07.jpg       	nonmovNat	5	sand      	31	sand07      	316	not_alive	0	still	0	natural 	1	n	0	0    	 	0.0	0	125.973019199999	126.07289619999901	0.0998770000005606
143538	100	352	stimuli\nonmovArt\clothespeg\nma_clothespeg04.jpg	1	5	1	nma_clothespeg04.jpg 	nonmovArt	4	clothespeg	8	clothespeg04	83	not_alive	0	still	0	artefact	0	n	0	0    	 	0.0	0	126.12298079999901	126.222885699994	0.0999048999947262
143689	100	353	stimuli\nonmovArt\bench\nma_bench03.jpg          	1	5	1	nma_bench03.jpg      	nonmovArt	4	bench     	1	bench03     	12	not_alive	0	still	0	artefact	0	n	0	0    	 	0.0	0	126.273020199995	126.372911999999	0.0998918000041158
143838	100	354	stimuli\animals2\bee\animal_bee02.jpg            	1	5	1	animal_bee02.jpg     	animals2 	1	bee       	0	bee02       	1	alive    	1	moves	1	natural 	1	n	1	0    	 	0.0	0	126.422984099998	126.52289129999599	0.0999071999976877
143989	100	355	stimuli\nonmovArt\lock\nma_lock05.jpg            	1	5	1	nma_lock05.jpg       	nonmovArt	4	lock      	24	lock05      	244	not_alive	0	still	0	artefact	0	n	0	0    	 	0.0	0	126.573034999994	126.67289629999901	0.0998613000047044
144139	100	356	stimuli\plant\cactus\plant_cactus03.jpg          	1	5	1	plant_cactus03.jpg   	plant    	6	cactus    	4	cactus03    	42	alive    	1	still	0	natural 	1	n	0	1    	f	0.39208140000118896	1	126.72308859999599	126.823005899998	0.0999173000018345
144289	100	357	stimuli\animals\horse\animal_horse07.jpg         	1	5	1	animal_horse07.jpg   	animals  	0	horse     	20	horse07     	206	alive    	1	moves	1	natural 	1	n	0	0    	 	0.0	0	126.87306519999399	126.972880899993	0.0998156999994535
144438	100	358	stimuli\plant\tree\plant_tree06.jpg              	1	5	1	plant_tree06.jpg     	plant    	6	tree      	35	tree06      	355	alive    	1	still	0	natural 	1	n	0	0    	 	0.0	0	127.022979399997	127.122879399998	0.09990000000107101
144588	100	359	stimuli\animals2\tiger\animal_tiger05.jpg        	1	5	1	animal_tiger05.jpg   	animals2 	1	tiger     	33	tiger05     	334	alive    	1	moves	1	natural 	1	n	0	0    	 	0.0	0	127.17297159999701	127.27290699999901	0.0999354000014136
144738	100	360	stimuli\animals2\bee\animal_bee10.jpg            	1	5	1	animal_bee10.jpg     	animals2 	1	bee       	0	bee10       	9	alive    	1	moves	1	natural 	1	n	0	0    	 	0.0	0	127.32298679999799	127.42288219999999	0.0998954000024241
144888	100	361	stimuli\nonmovArt\mug\nma_mug01.jpg              	1	5	1	nma_mug01.jpg        	nonmovArt	4	mug       	26	mug01       	260	not_alive	0	still	0	artefact	0	n	0	0    	 	0.0	0	127.47297830000001	127.57289709999901	0.0999187999987043
145038	100	362	stimuli\animals\eagle\animal_eagle03.jpg         	1	5	1	animal_eagle03.jpg   	animals  	0	eagle     	13	eagle03     	132	alive    	1	moves	1	natural 	1	n	0	0    	 	0.0	0	127.622984899994	127.722896599997	0.0999117000028491
145188	100	363	stimuli\animals2\tiger\animal_tiger04.jpg        	1	5	1	animal_tiger04.jpg   	animals2 	1	tiger     	33	tiger04     	333	alive    	1	moves	1	natural 	1	n	0	0    	 	0.0	0	127.772970399994	127.87288239999901	0.0999120000051334
145339	100	364	stimuli\nonmovNat\shell\nmn_shell04.jpg          	1	5	1	nmn_shell04.jpg      	nonmovNat	5	shell     	32	shell04     	323	not_alive	0	still	0	natural 	1	n	0	0    	 	0.0	0	127.92299979999399	128.02287090000002	0.0998711000065668
145489	100	365	stimuli\animals\dolphin\animal_dolphin09.jpg     	1	5	1	animal_dolphin09.jpg 	animals  	0	dolphin   	12	dolphin09   	128	alive    	1	moves	1	natural 	1	n	0	0    	 	0.0	0	128.072994899994	128.17286479999902	0.0998699000047054
145638	100	366	stimuli\animals\dolphin\animal_dolphin04.jpg     	1	5	1	animal_dolphin04.jpg 	animals  	0	dolphin   	12	dolphin04   	123	alive    	1	moves	1	natural 	1	n	0	0    	 	0.0	0	128.222975299999	128.322879699997	0.099904399998195
145788	100	367	stimuli\movNat\fire\mn_fire05.jpg                	1	5	1	mn_fire05.jpg        	movNat   	3	fire      	15	fire05      	154	not_alive	0	moves	1	natural 	1	n	0	0    	 	0.0	0	128.372987899995	128.472846899996	0.0998590000017429
145939	100	368	stimuli\plant2\moss\plant_moss09.jpg             	1	5	1	plant_moss09.jpg     	plant2   	7	moss      	25	moss09      	258	alive    	1	still	0	natural 	1	n	0	0    	 	0.0	0	128.523042399996	128.622919199996	0.0998767999990377
146089	100	369	stimuli\nonmovNat\cliff\nmn_cliff01.jpg          	1	5	1	nmn_cliff01.jpg      	nonmovNat	5	cliff     	7	cliff01     	70	not_alive	0	still	0	natural 	1	n	0	0    	 	0.0	0	128.673028799996	128.772857299999	0.0998285000023315
146238	100	370	stimuli\movArt\train\ma_train10.jpg              	1	5	1	ma_train10.jpg       	movArt   	2	train     	34	train10     	349	not_alive	0	moves	1	artefact	0	n	0	0    	 	0.0	0	128.822977299998	128.9228802	0.0999029000013251
146388	100	371	stimuli\nonmovNat\cliff\nmn_cliff02.jpg          	1	5	1	nmn_cliff02.jpg      	nonmovNat	5	cliff     	7	cliff02     	71	not_alive	0	still	0	natural 	1	n	0	0    	 	0.0	0	128.9729582	129.072853899997	0.0998956999974325
146538	100	372	stimuli\animals2\pigeon\animal_pigeon03.jpg      	1	5	1	animal_pigeon03.jpg  	animals2 	1	pigeon    	28	pigeon03    	282	alive    	1	moves	1	natural 	1	n	0	0    	 	0.0	0	129.122941199996	129.222859399997	0.0999182000014116
146688	100	373	stimuli\nonmovArt\clothespeg\nma_clothespeg07.jpg	1	5	1	nma_clothespeg07.jpg 	nonmovArt	4	clothespeg	8	clothespeg07	86	not_alive	0	still	0	artefact	0	n	0	0    	 	0.0	0	129.272972399995	129.372883799995	0.0999114000005647
146838	100	374	stimuli\nonmovArt\mug\nma_mug01.jpg              	1	5	1	nma_mug01.jpg        	nonmovArt	4	mug       	26	mug01       	260	not_alive	0	still	0	artefact	0	n	0	0    	 	0.0	0	129.422975499998	129.52285089999398	0.0998753999956534
146988	100	375	stimuli\plant\tree\plant_tree03.jpg              	1	5	1	plant_tree03.jpg     	plant    	6	tree      	35	tree03      	352	alive    	1	still	0	natural 	1	n	0	0    	 	0.0	0	129.572946699998	129.6728802	0.09993350000149799
147138	100	376	stimuli\plant2\clover\plant_clover02.jpg         	1	5	1	plant_clover02.jpg   	plant2   	7	clover    	9	clover02    	91	alive    	1	still	0	natural 	1	n	0	0    	 	0.0	0	129.722943499997	129.822848299998	0.0999048000012408
147288	100	377	stimuli\plant2\moss\plant_moss04.jpg             	1	5	1	plant_moss04.jpg     	plant2   	7	moss      	25	moss04      	253	alive    	1	still	0	natural 	1	n	0	0    	 	0.0	0	129.8729417	129.972867299999	0.0999255999995512
147438	100	378	stimuli\plant2\fern\plant_fern01.jpg             	1	5	1	plant_fern01.jpg     	plant2   	7	fern      	14	fern01      	140	alive    	1	still	0	natural 	1	n	0	0    	 	0.0	0	130.022958099995	130.122849399995	0.0998913000003085
147588	100	379	stimuli\animals\dog\animal_dog07.jpg             	1	5	1	animal_dog07.jpg     	animals  	0	dog       	11	dog07       	116	alive    	1	moves	1	natural 	1	n	0	0    	 	0.0	0	130.172979999996	130.272973799998	0.0999938000022666
147739	100	380	stimuli\movArt\bus\ma_bus08.jpg                  	1	5	1	ma_bus08.jpg         	movArt   	2	bus       	3	bus08       	37	not_alive	0	moves	1	artefact	0	n	0	0    	 	0.0	0	130.323135599996	130.4229471	0.0998115000038524
147888	100	381	stimuli\movNat\waterfall\mn_waterfall03.jpg      	1	5	1	mn_waterfall03.jpg   	movNat   	3	waterfall 	37	waterfall03 	372	not_alive	0	moves	1	natural 	1	n	0	0    	 	0.0	0	130.472971999996	130.572851799996	0.0998798000000533
148038	100	382	stimuli\plant2\clover\plant_clover09.jpg         	1	5	1	plant_clover09.jpg   	plant2   	7	clover    	9	clover09    	98	alive    	1	still	0	natural 	1	n	0	0    	 	0.0	0	130.622959	130.722864699994	0.0999056999935419
148188	100	383	stimuli\plant2\lemontree\plant_lemontree07.jpg   	1	5	1	plant_lemontree07.jpg	plant2   	7	lemontree 	22	lemontree07 	226	alive    	1	still	0	natural 	1	n	0	0    	 	0.0	0	130.7729741	130.8728739	0.0998997999995481
148339	100	384	stimuli\plant2\palmtree\plant_palmtree01.jpg     	1	5	1	plant_palmtree01.jpg 	plant2   	7	palmtree  	27	palmtree01  	270	alive    	1	still	0	natural 	1	n	0	0    	 	0.0	0	130.922977299997	131.022835699994	0.0998583999971742
148488	100	385	stimuli\animals\cat\animal_cat01.jpg             	1	5	1	animal_cat01.jpg     	animals  	0	cat       	6	cat01       	60	alive    	1	moves	1	natural 	1	n	0	0    	 	0.0	0	131.072956799995	131.17284109999997	0.0998843000052147
148638	100	386	stimuli\animals2\tiger\animal_tiger01.jpg        	1	5	1	animal_tiger01.jpg   	animals2 	1	tiger     	33	tiger01     	330	alive    	1	moves	1	natural 	1	n	0	0    	 	0.0	0	131.222935199999	131.322857499996	0.0999222999962512
148788	100	387	stimuli\plant\vine\plant_vine06.jpg              	1	5	1	plant_vine06.jpg     	plant    	6	vine      	36	vine06      	365	alive    	1	still	0	natural 	1	n	0	0    	 	0.0	0	131.37293179999702	131.472832299994	0.0999004999976023
148939	100	388	stimuli\movNat\hotspring\mn_hotspring09.jpg      	1	5	1	mn_hotspring09.jpg   	movNat   	3	hotspring 	21	hotspring09 	218	not_alive	0	moves	1	natural 	1	n	0	0    	 	0.0	0	131.522959999995	131.622865499994	0.099905499999295
149088	100	389	stimuli\animals2\whale\animal_whale05.jpg        	1	5	1	animal_whale05.jpg   	animals2 	1	whale     	39	whale05     	394	alive    	1	moves	1	natural 	1	n	0	0    	 	0.0	0	131.67293889999598	131.772866699997	0.0999278000017511
149238	100	390	stimuli\nonmovArt\clothespeg\nma_clothespeg10.jpg	1	5	1	nma_clothespeg10.jpg 	nonmovArt	4	clothespeg	8	clothespeg10	89	not_alive	0	still	0	artefact	0	n	0	0    	 	0.0	0	131.822952299997	131.922835400001	0.0998831000033533
149388	100	391	stimuli\animals2\pigeon\animal_pigeon08.jpg      	1	5	1	animal_pigeon08.jpg  	animals2 	1	pigeon    	28	pigeon08    	287	alive    	1	moves	1	natural 	1	n	0	0    	 	0.0	0	131.972937799997	132.0729202	0.0999824000027729
149539	100	392	stimuli\plant\flower\plant_flower09.jpg          	1	5	1	plant_flower09.jpg   	plant    	6	flower    	16	flower09    	168	alive    	1	still	0	natural 	1	n	0	0    	 	0.0	0	132.123092999995	132.22290349999798	0.0998105000035138
149688	100	393	stimuli\movArt\bus\ma_bus05.jpg                  	1	5	1	ma_bus05.jpg         	movArt   	2	bus       	3	bus05       	34	not_alive	0	moves	1	artefact	0	n	0	0    	 	0.0	0	132.272955	132.372845799997	0.0998907999965013
149838	100	394	stimuli\plant\cactus\plant_cactus05.jpg          	1	5	1	plant_cactus05.jpg   	plant    	6	cactus    	4	cactus05    	44	alive    	1	still	0	natural 	1	n	0	0    	 	0.0	0	132.422909599998	132.522825199994	0.0999155999961658
149988	100	395	stimuli\plant\tree\plant_tree07.jpg              	1	5	1	plant_tree07.jpg     	plant    	6	tree      	35	tree07      	356	alive    	1	still	0	natural 	1	n	0	0    	 	0.0	0	132.57291779999701	132.672847499998	0.0999297000016668
150138	100	396	stimuli\animals\cat\animal_cat08.jpg             	1	5	1	animal_cat08.jpg     	animals  	0	cat       	6	cat08       	67	alive    	1	moves	1	natural 	1	n	0	0    	 	0.0	0	132.72291620000001	132.822847399999	0.0999311999985366
150288	100	397	stimuli\nonmovNat\shell\nmn_shell03.jpg          	1	5	1	nmn_shell03.jpg      	nonmovNat	5	shell     	32	shell03     	322	not_alive	0	still	0	natural 	1	n	0	0    	 	0.0	0	132.87296079999902	132.972851299994	0.0998904999942169
150438	100	398	stimuli\movArt\helicopter\ma_helicopter05.jpg    	1	5	1	ma_helicopter05.jpg  	movArt   	2	helicopter	19	helicopter05	194	not_alive	0	moves	1	artefact	0	n	0	0    	 	0.0	0	133.022923199998	133.122848699997	0.0999254999987897
150588	100	399	stimuli\movArt\boat\ma_boat06.jpg                	1	5	1	ma_boat06.jpg        	movArt   	2	boat      	2	boat06      	25	not_alive	0	moves	1	artefact	0	n	0	0    	 	0.0	0	133.172934299997	133.27284129999998	0.0999070000034407
158788	100	400	stimuli\movNat\waves\mn_waves01.jpg              	1	6	1	mn_waves01.jpg       	movNat   	3	waves     	38	waves01     	380	not_alive	0	moves	1	natural 	1	n	0	0    	 	0.0	0	141.3728261	141.472738099998	0.0999119999978574
158938	100	401	stimuli\nonmovArt\lock\nma_lock08.jpg            	1	6	1	nma_lock08.jpg       	nonmovArt	4	lock      	24	lock08      	247	not_alive	0	still	0	artefact	0	n	0	0    	 	0.0	0	141.52281159999998	141.622726399997	0.0999147999973502
159088	100	402	stimuli\movArt\bus\ma_bus01.jpg                  	1	6	1	ma_bus01.jpg         	movArt   	2	bus       	3	bus01       	30	not_alive	0	moves	1	artefact	0	n	0	0    	 	0.0	0	141.672816300001	141.772702599999	0.0998862999986158
159238	100	403	stimuli\movArt\train\ma_train06.jpg              	1	6	1	ma_train06.jpg       	movArt   	2	train     	34	train06     	345	not_alive	0	moves	1	artefact	0	n	0	0    	 	0.0	0	141.8228199	141.92271919999598	0.0998992999957408
159388	100	404	stimuli\animals\dog\animal_dog08.jpg             	1	6	1	animal_dog08.jpg     	animals  	0	dog       	11	dog08       	117	alive    	1	moves	1	natural 	1	n	0	0    	 	0.0	0	141.97282209999702	142.072749499996	0.0999273999987053
159538	100	405	stimuli\plant\vine\plant_vine04.jpg              	1	6	1	plant_vine04.jpg     	plant    	6	vine      	36	vine04      	363	alive    	1	still	0	natural 	1	n	0	0    	 	0.0	0	142.122810199995	142.222747100001	0.0999369000055594
159688	100	406	stimuli\animals\eagle\animal_eagle05.jpg         	1	6	1	animal_eagle05.jpg   	animals  	0	eagle     	13	eagle05     	134	alive    	1	moves	1	natural 	1	n	0	0    	 	0.0	0	142.272914499998	142.372723699998	0.099809200000891
159838	100	407	stimuli\animals2\tiger\animal_tiger09.jpg        	1	6	1	animal_tiger09.jpg   	animals2 	1	tiger     	33	tiger09     	338	alive    	1	moves	1	natural 	1	n	0	0    	 	0.0	0	142.422807899995	142.522698699999	0.0998908000037772
159988	100	408	stimuli\nonmovNat\rock\nmn_rock01.jpg            	1	6	1	nmn_rock01.jpg       	nonmovNat	5	rock      	30	rock01      	300	not_alive	0	still	0	natural 	1	n	0	0    	 	0.0	0	142.572809899997	142.67270509999798	0.0998952000009012
160138	100	409	stimuli\animals\eagle\animal_eagle04.jpg         	1	6	1	animal_eagle04.jpg   	animals  	0	eagle     	13	eagle04     	133	alive    	1	moves	1	natural 	1	n	0	0    	 	0.0	0	142.7228111	142.822703699996	0.0998925999956554
160288	100	410	stimuli\plant\tree\plant_tree09.jpg              	1	6	1	plant_tree09.jpg     	plant    	6	tree      	35	tree09      	358	alive    	1	still	0	natural 	1	n	0	0    	 	0.0	0	142.872812399997	142.97271279999399	0.0999003999968408
160438	100	411	stimuli\nonmovNat\cliff\nmn_cliff10.jpg          	1	6	1	nmn_cliff10.jpg      	nonmovNat	5	cliff     	7	cliff10     	79	not_alive	0	still	0	natural 	1	n	1	0    	 	0.0	0	143.02278859999902	143.122712999997	0.0999243999976897
160588	100	412	stimuli\nonmovArt\mug\nma_mug07.jpg              	1	6	1	nma_mug07.jpg        	nonmovArt	4	mug       	26	mug07       	266	not_alive	0	still	0	artefact	0	n	0	0    	 	0.0	0	143.172803199996	143.272710999998	0.0999078000022564
160739	100	413	stimuli\plant\vine\plant_vine01.jpg              	1	6	1	plant_vine01.jpg     	plant    	6	vine      	36	vine01      	360	alive    	1	still	0	natural 	1	n	0	1    	f	0.392374999995809	1	143.323073599997	143.422708799997	0.0996352000001934
160888	100	414	stimuli\animals\horse\animal_horse09.jpg         	1	6	1	animal_horse09.jpg   	animals  	0	horse     	20	horse09     	208	alive    	1	moves	1	natural 	1	n	0	0    	 	0.0	0	143.472785899998	143.57270119999902	0.0999153000011574
161038	100	415	stimuli\nonmovArt\bench\nma_bench08.jpg          	1	6	1	nma_bench08.jpg      	nonmovArt	4	bench     	1	bench08     	17	not_alive	0	still	0	artefact	0	n	0	0    	 	0.0	0	143.622794299998	143.722693099997	0.0998987999992096
161188	100	416	stimuli\plant2\moss\plant_moss02.jpg             	1	6	1	plant_moss02.jpg     	plant2   	7	moss      	25	moss02      	251	alive    	1	still	0	natural 	1	n	0	0    	 	0.0	0	143.77278969999998	143.872708899995	0.0999191999944741
161338	100	417	stimuli\plant2\palmtree\plant_palmtree07.jpg     	1	6	1	plant_palmtree07.jpg 	plant2   	7	palmtree  	27	palmtree07  	276	alive    	1	still	0	natural 	1	n	0	0    	 	0.0	0	143.922788299999	144.02277589999701	0.0999875999987125
